Timestamp,Gyroscope_x,Gyroscope_y,Gyroscope_z,Accelerometer_x,Accelerometer_y,Accelerometer_z,Magnetometer_x,Magnetometer_y,Magnetometer_z,Latitude,Longitude,Altitude,Speed,Accelerometer_vehicle_x,Accelerometer_vehicle_y,Accelerometer_vehicle_z,Time,Accelerometer_Average,event,value,label
1677898528251,0.2115537971258163,0.0712041407823562,-0.0695447251200676,-0.0555419921875,-0.837249755859375,-0.3218536376953125,-11.970453262329102,-10.777801513671877,-12.042388916015623,24.78744182804459,120.99793635942484,92.76740812789647,5.043490502370266,-0.04278769358769772,-0.0927657374281726,0.8928748859259609,1677898528.251,0.9949515368240961,5095,0.8928748859259609,2
1677898538428,-0.271972119808197,-0.0184724833816289,0.0390278249979019,0.03509521484375,-1.119384765625,-0.2514801025390625,-12.544389724731444,-10.292685508728027,-12.339252471923828,24.787818773088212,120.998599798506,90.86066596210004,5.591045493137019,0.05147094417175107,0.04863778069209096,1.145635752666064,1677898538.428,0.9949515368240961,5408,1.145635752666064,2
1677898538342,-0.271972119808197,-0.0184724833816289,0.0390278249979019,0.03509521484375,-1.119384765625,-0.2514801025390625,-11.880086898803713,-10.74593734741211,-12.291378021240234,24.787818773088212,120.998599798506,90.86066596210004,5.591045493137019,0.05147094417175107,0.04863778069209096,1.145635752666064,1677898538.342,0.9949515368240961,5407,1.145635752666064,2
1677898538336,-0.271972119808197,-0.0184724833816289,0.0390278249979019,0.0805816650390625,-1.136627197265625,-0.2333984375,-11.880086898803713,-10.74593734741211,-12.291378021240234,24.787818773088212,120.998599798506,90.86066596210004,5.591045493137019,0.09712336585419502,0.07058509566711879,1.1569245511296902,1677898538.336,0.9949515368240961,5406,1.1569245511296902,2
1677898538329,-0.1381589323282241,-0.0432065911591053,0.0101402522996068,0.0805816650390625,-1.136627197265625,-0.2333984375,-11.880086898803713,-10.74593734741211,-12.291378021240234,24.787818773088212,120.998599798506,90.86066596210004,5.591045493137019,0.09712336585419502,0.07058509566711879,1.1569245511296902,1677898538.329,0.9949515368240961,5405,1.1569245511296902,2
1677898538229,-0.1381589323282241,-0.0432065911591053,0.0101402522996068,0.0805816650390625,-1.136627197265625,-0.2333984375,-11.68983268737793,-10.864572525024414,-12.285163879394531,24.787818773088212,120.998599798506,90.86066596210004,5.591045493137019,0.09712336585419502,0.07058509566711879,1.1569245511296902,1677898538.229,0.9949515368240961,5404,1.1569245511296902,2
1677898537624,0.0424499884247779,-0.0763938426971435,0.0200967453420162,-0.0488128662109375,-1.197052001953125,-0.0805511474609375,-10.67618179321289,-11.435726165771484,-13.594558715820312,24.787783265384864,120.99854255297927,91.11148305982351,5.385131811351651,-0.03199295291743035,0.23389315887266493,1.1773169156353673,1677898537.624,0.9949515368240961,5384,1.1773169156353673,2
1677898537617,-0.0595488138496875,-0.1067677214741706,0.0843649506568908,-0.0488128662109375,-1.197052001953125,-0.0805511474609375,-10.67618179321289,-11.435726165771484,-13.594558715820312,24.787783265384864,120.99854255297927,91.11148305982351,5.385131811351651,-0.03199295291743035,0.23389315887266493,1.1773169156353673,1677898537.617,0.9949515368240961,5383,1.1773169156353673,2
1677898537538,-0.0595488138496875,-0.1067677214741706,0.0843649506568908,-0.0488128662109375,-1.197052001953125,-0.0805511474609375,-10.54962921142578,-11.449058532714844,-13.90764617919922,24.787783265384864,120.99854255297927,91.11148305982351,5.385131811351651,-0.03199295291743035,0.23389315887266493,1.1773169156353673,1677898537.538,0.9949515368240961,5382,1.1773169156353673,2
1677898537140,0.1249256879091262,-0.0326801836490631,-0.1024528741836547,0.092193603515625,-1.0561676025390625,-0.3275146484375,-10.602399826049805,-11.79680061340332,-14.993316650390623,24.787746954631952,120.99848464296603,91.35103353857994,5.690708839866541,0.10797420139964406,-0.04123373872241354,1.1035836446534206,1677898537.14,0.9949515368240961,5368,1.1035836446534206,2
1677898537123,-0.2458196133375167,0.0312817580997943,-0.0995811820030212,0.092193603515625,-1.0561676025390625,-0.3275146484375,-10.602399826049805,-11.79680061340332,-14.993316650390623,24.787746954631952,120.99848464296603,91.35103353857994,5.690708839866541,0.10797420139964406,-0.04123373872241354,1.1035836446534206,1677898537.123,0.9949515368240961,5367,1.1035836446534206,2
1677898537029,-0.2458196133375167,0.0312817580997943,-0.0995811820030212,0.092193603515625,-1.0561676025390625,-0.3275146484375,-10.65822410583496,-11.757242202758787,-15.041862487792969,24.787746954631952,120.99848464296603,91.35103353857994,5.690708839866541,0.10797420139964406,-0.04123373872241354,1.1035836446534206,1677898537.029,0.9949515368240961,5366,1.1035836446534206,2
1677898537023,-0.1506928354501724,-0.0193004608154296,-0.0131719950586557,0.092193603515625,-1.0561676025390625,-0.3275146484375,-10.65822410583496,-11.757242202758787,-15.041862487792969,24.787746954631952,120.99848464296603,91.35103353857994,5.690708839866541,0.10797420139964406,-0.04123373872241354,1.1035836446534206,1677898537.023,0.9949515368240961,5365,1.1035836446534206,2
1677898537018,-0.1506928354501724,-0.0193004608154296,-0.0131719950586557,0.22442626953125,-1.1134796142578125,-0.253662109375,-10.65822410583496,-11.757242202758787,-15.041862487792969,24.787746954631952,120.99848464296603,91.35103353857994,5.690708839866541,0.24070931531234704,0.044993554835709465,1.1377974657649408,1677898537.018,0.9949515368240961,5364,1.1377974657649408,2
1677898536928,-0.1506928354501724,-0.0193004608154296,-0.0131719950586557,0.22442626953125,-1.1134796142578125,-0.253662109375,-11.245979309082031,-10.584033966064451,-13.8946533203125,24.787746954631952,120.99848464296603,91.35103353857994,5.690708839866541,0.24070931531234704,0.044993554835709465,1.1377974657649408,1677898536.928,0.9949515368240961,5363,1.1377974657649408,2
1677898536713,-0.4070729613304138,-0.5334527492523193,0.230163425207138,0.102691650390625,-0.85565185546875,-0.242401123046875,-11.35197639465332,-10.551490783691406,-14.10406494140625,24.787746954631952,120.99848464296603,91.35103353857994,5.690708839866541,0.11538808354526314,-0.011262245766276102,0.8876951781312674,1677898536.713,0.9949515368240961,5356,0.8876951781312674,2
1677898536704,0.0334066934883594,-0.2908028066158294,0.2168305814266204,0.102691650390625,-0.85565185546875,-0.242401123046875,-11.35197639465332,-10.551490783691406,-14.10406494140625,24.787746954631952,120.99848464296603,91.35103353857994,5.690708839866541,0.11538808354526314,-0.011262245766276102,0.8876951781312674,1677898536.704,0.9949515368240961,5355,0.8876951781312674,2
1677898536639,0.0334066934883594,-0.2908028066158294,0.2168305814266204,0.102691650390625,-0.85565185546875,-0.242401123046875,-11.465986251831056,-10.603737831115724,-14.126716613769531,24.787746954631952,120.99848464296603,91.35103353857994,5.690708839866541,0.11538808354526314,-0.011262245766276102,0.8876951781312674,1677898536.639,0.9949515368240961,5354,0.8876951781312674,2
1677898535209,-0.1518425196409225,-0.3445539176464081,0.1925510764122009,-0.1844329833984375,-0.8545684814453125,-0.2214508056640625,-11.910406112670898,-10.323110580444336,-14.270320892333984,24.78770933601406,120.99842493176033,91.74351505469532,6.01419250622093,-0.17180012585067123,0.00868345188828673,0.8852980224733678,1677898535.209,0.9949515368240961,5310,0.8852980224733678,2
1677898535204,-0.165668323636055,0.1762661039829254,0.0284862369298934,-0.1844329833984375,-0.8545684814453125,-0.2214508056640625,-11.910406112670898,-10.323110580444336,-14.270320892333984,24.78770933601406,120.99842493176033,91.74351505469532,6.01419250622093,-0.17180012585067123,0.00868345188828673,0.8852980224733678,1677898535.204,0.9949515368240961,5309,0.8852980224733678,2
1677898535169,-0.165668323636055,0.1762661039829254,0.0284862369298934,-0.1844329833984375,-0.8545684814453125,-0.2214508056640625,-12.020320892333984,-10.487459182739258,-14.241920471191406,24.78770933601406,120.99842493176033,91.74351505469532,6.01419250622093,-0.17180012585067123,0.00868345188828673,0.8852980224733678,1677898535.169,0.9949515368240961,5308,0.8852980224733678,2
1677898535118,-0.165668323636055,0.1762661039829254,0.0284862369298934,-0.1844329833984375,-0.8545684814453125,-0.2214508056640625,-12.020320892333984,-10.487459182739258,-14.241920471191406,24.78766065731737,120.9983471131636,91.9492999901995,6.094524578126404,-0.17180012585067123,0.00868345188828673,0.8852980224733678,1677898535.118,0.9949515368240961,5307,0.8852980224733678,2
1677898538433,-0.1824520975351333,0.0084371604025363,-0.0063329972326755,0.03509521484375,-1.119384765625,-0.2514801025390625,-12.544389724731444,-10.292685508728027,-12.339252471923828,24.787818773088212,120.998599798506,90.86066596210004,5.591045493137019,0.05147094417175107,0.04863778069209096,1.145635752666064,1677898538.433,0.9949515368240961,5409,1.145635752666064,2
1677898534800,0.0958607494831085,-0.1816518157720565,0.1659135967493057,-0.0210113525390625,-0.7833099365234375,-0.25048828125,-11.872411727905272,-10.77129364013672,-14.60284423828125,24.78766065731737,120.9983471131636,91.9492999901995,6.094524578126404,-0.009270274254775656,-0.037905534690959086,0.8217283888794917,1677898534.8,0.9949515368240961,5297,0.8217283888794917,2
1677898538545,-0.1824520975351333,0.0084371604025363,-0.0063329972326755,0.00848388671875,-0.7539520263671875,-0.3961334228515625,-12.69821548461914,-10.178892135620115,-12.372234344482422,24.787818773088212,120.998599798506,90.86066596210004,5.591045493137019,0.02035877463413531,-0.18617122105387005,0.8308809300037203,1677898538.545,0.9949515368240961,5412,0.8308809300037203,2
1677898538624,0.2206354439258575,0.1523602455854416,0.0985766425728797,0.00848388671875,-0.7539520263671875,-0.3961334228515625,-12.772287368774414,-10.479948043823242,-12.844108581542969,24.787818773088212,120.998599798506,90.86066596210004,5.591045493137019,0.02035877463413531,-0.18617122105387005,0.8308809300037203,1677898538.624,0.9949515368240961,5414,0.8308809300037203,2
1677898540945,-0.244045689702034,0.0562283843755722,-0.0397399552166461,0.0092620849609375,-1.0969696044921875,-0.2850341796875,-13.240873336791992,-11.846246719360352,-12.965866088867188,24.78789570025399,120.9987231718119,90.27697936911136,6.396228119208117,0.025456033938755736,0.010404898878244695,1.1331003095062406,1677898540.945,0.9949515368240961,5485,1.1331003095062406,2
1677898540856,-0.244045689702034,0.0562283843755722,-0.0397399552166461,0.0092620849609375,-1.0969696044921875,-0.2850341796875,-13.154407501220703,-12.036754608154297,-13.304302215576172,24.78789570025399,120.9987231718119,90.27697936911136,6.396228119208117,0.025456033938755736,0.010404898878244695,1.1331003095062406,1677898540.856,0.9949515368240961,5484,1.1331003095062406,2
1677898540851,-0.1432335972785949,0.0766100883483886,-0.0216190088540315,0.0092620849609375,-1.0969696044921875,-0.2850341796875,-13.154407501220703,-12.036754608154297,-13.304302215576172,24.78789570025399,120.9987231718119,90.27697936911136,6.396228119208117,0.025456033938755736,0.010404898878244695,1.1331003095062406,1677898540.851,0.9949515368240961,5483,1.1331003095062406,2
1677898474104,-0.0253591518849134,0.0992267206311225,-0.0281149912625551,0.0316925048828125,-1.076263427734375,-0.30548095703125,26.44477844238281,-16.742969512939453,34.38651657104492,24.787933157612624,120.99525342761484,89.38760689459741,4.179790938212211,0.04767455942609917,-0.014727784265213872,1.1181127960126322,1677898474.104,0.9984248164439979,3427,1.1181127960126322,2
1677898474094,-0.0619991868734359,0.0613925196230411,-0.013079316355288,0.0316925048828125,-1.076263427734375,-0.30548095703125,26.44477844238281,-16.742969512939453,34.38651657104492,24.787933157612624,120.99525342761484,89.38760689459741,4.179790938212211,0.04767455942609917,-0.014727784265213872,1.1181127960126322,1677898474.094,0.9984248164439979,3426,1.1181127960126322,2
1677898474005,-0.0619991868734359,0.0613925196230411,-0.013079316355288,0.0316925048828125,-1.076263427734375,-0.30548095703125,26.885055541992188,-16.103260040283203,34.289886474609375,24.787933157612624,120.99525342761484,89.38760689459741,4.179790938212211,0.04767455942609917,-0.014727784265213872,1.1181127960126322,1677898474.005,0.9984248164439979,3425,1.1181127960126322,2
1677898407544,0.1173458024859428,-0.0489989668130874,-0.0543689653277397,0.1009063720703125,-1.1568145751953125,-0.2554473876953125,40.892539978027344,-10.398026466369627,-31.67357635498047,24.789495084279626,120.99766545688284,88.39028199575841,7.03301508522118,0.11780654614519842,0.05455260187237887,1.181863383180711,1677898407.544,0.9937643201223948,1378,1.181863383180711,2
1677898407537,-0.2314129769802093,0.0796455591917038,0.0349044539034366,0.1009063720703125,-1.1568145751953125,-0.2554473876953125,40.892539978027344,-10.398026466369627,-31.67357635498047,24.789495084279626,120.99766545688284,88.39028199575841,7.03301508522118,0.11780654614519842,0.05455260187237887,1.181863383180711,1677898407.537,0.9937643201223948,1377,1.181863383180711,2
1677898407452,-0.2314129769802093,0.0796455591917038,0.0349044539034366,0.1009063720703125,-1.1568145751953125,-0.2554473876953125,40.347801208496094,-10.40084457397461,-31.52666473388672,24.789495084279626,120.99766545688284,88.39028199575841,7.03301508522118,0.11780654614519842,0.05455260187237887,1.181863383180711,1677898407.452,0.9937643201223948,1376,1.181863383180711,2
1677898473794,0.0686360523104667,-0.0163656566292047,0.0134268589317798,-0.039947509765625,-0.810516357421875,-0.3119354248046875,26.95893096923828,-15.94547176361084,33.86014175415039,24.787933157612624,120.99525342761484,89.38760689459741,4.179790938212211,-0.027600533179678644,-0.09014993799688767,0.864261232313665,1677898473.794,0.9984248164439979,3418,0.864261232313665,2
1677898473789,0.1774711906909942,-0.0246558114886283,0.021849637851119,-0.039947509765625,-0.810516357421875,-0.3119354248046875,26.95893096923828,-15.94547176361084,33.86014175415039,24.787933157612624,120.99525342761484,89.38760689459741,4.179790938212211,-0.027600533179678644,-0.09014993799688767,0.864261232313665,1677898473.789,0.9984248164439979,3417,0.864261232313665,2
1677898473705,0.1774711906909942,-0.0246558114886283,0.021849637851119,-0.039947509765625,-0.810516357421875,-0.3119354248046875,26.7885856628418,-15.921038627624512,33.975929260253906,24.787933157612624,120.99525342761484,89.38760689459741,4.179790938212211,-0.027600533179678644,-0.09014993799688767,0.864261232313665,1677898473.705,0.9984248164439979,3416,0.864261232313665,2
1677898407232,0.1158128827810287,-0.0155430072918534,0.0552161186933517,0.0294036865234375,-0.77069091796875,-0.247802734375,39.73134613037109,-10.781757354736328,-31.864166259765625,24.789495084279626,120.99766545688284,88.39028199575841,7.03301508522118,0.04095552660035167,-0.03859811502664673,0.8081262855158763,1677898407.232,0.9937643201223948,1368,0.8081262855158763,2
1677898407156,0.1158128827810287,-0.0155430072918534,0.0552161186933517,0.0294036865234375,-0.77069091796875,-0.247802734375,39.08487701416016,-10.455238342285156,-31.936752319335938,24.789495084279626,120.99766545688284,88.39028199575841,7.03301508522118,0.04095552660035167,-0.03859811502664673,0.8081262855158763,1677898407.156,0.9937643201223948,1367,0.8081262855158763,2
1677898407149,0.1158128827810287,-0.0155430072918534,0.0552161186933517,0.0294036865234375,-0.77069091796875,-0.247802734375,39.08487701416016,-10.455238342285156,-31.936752319335938,24.78945755516246,120.99771460362008,88.52087862137705,7.137330796426955,0.04095552660035167,-0.03859811502664673,0.8081262855158763,1677898407.149,0.9937643201223948,1366,0.8081262855158763,2
1677898406734,-0.0564105436205863,0.3319076299667358,0.0281956847757101,0.1265716552734375,-1.1080780029296875,-0.2917938232421875,36.98412322998047,-10.9210205078125,-30.209686279296875,24.78945755516246,120.99771460362008,88.52087862137705,7.137330796426955,0.14293203385126393,0.006770585915281846,1.1439079825943608,1677898406.734,0.9937643201223948,1352,1.1439079825943608,2
1677898406643,-0.0564105436205863,0.3319076299667358,0.0281956847757101,0.1265716552734375,-1.1080780029296875,-0.2917938232421875,36.67315673828125,-13.08199691772461,-30.589393615722656,24.78945755516246,120.99771460362008,88.52087862137705,7.137330796426955,0.14293203385126393,0.006770585915281846,1.1439079825943608,1677898406.643,0.9937643201223948,1351,1.1439079825943608,2
1677898406223,0.1159295290708541,0.0760798528790474,-0.0378765426576137,-0.0118865966796875,-0.8393707275390625,-0.303924560546875,38.81806945800781,-10.914505004882812,-32.46353912353516,24.78945755516246,120.99771460362008,88.52087862137705,7.137330796426955,0.0008258033346188567,-0.07490279302190267,0.8896311244443184,1677898406.223,0.9937643201223948,1337,0.8896311244443184,2
1677898406153,0.1159295290708541,0.0760798528790474,-0.0378765426576137,-0.0118865966796875,-0.8393707275390625,-0.303924560546875,39.05503845214844,-10.791419982910156,-32.36741638183594,24.78945755516246,120.99771460362008,88.52087862137705,7.137330796426955,0.0008258033346188567,-0.07490279302190267,0.8896311244443184,1677898406.153,0.9937643201223948,1336,0.8896311244443184,2
1677898406144,0.1159295290708541,0.0760798528790474,-0.0378765426576137,-0.0118865966796875,-0.8393707275390625,-0.303924560546875,39.05503845214844,-10.791419982910156,-32.36741638183594,24.78941226145404,120.99777534014378,88.66977713722736,7.004394156376776,0.0008258033346188567,-0.07490279302190267,0.8896311244443184,1677898406.144,0.9937643201223948,1335,0.8896311244443184,2
1677898538630,-0.0094180032610893,-0.1454770416021347,0.1194006949663162,0.00848388671875,-0.7539520263671875,-0.3961334228515625,-12.772287368774414,-10.479948043823242,-12.844108581542969,24.787818773088212,120.998599798506,90.86066596210004,5.591045493137019,0.02035877463413531,-0.18617122105387005,0.8308809300037203,1677898538.63,0.9949515368240961,5415,0.8308809300037203,2
1677898538550,0.2206354439258575,0.1523602455854416,0.0985766425728797,0.00848388671875,-0.7539520263671875,-0.3961334228515625,-12.69821548461914,-10.178892135620115,-12.372234344482422,24.787818773088212,120.998599798506,90.86066596210004,5.591045493137019,0.02035877463413531,-0.18617122105387005,0.8308809300037203,1677898538.55,0.9949515368240961,5413,0.8308809300037203,2
1677898540962,-0.05803107842803,-0.0210573486983776,-0.0097618168219923,0.0092620849609375,-1.0969696044921875,-0.2850341796875,-13.240873336791992,-11.846246719360352,-12.965866088867188,24.78789570025399,120.9987231718119,90.27697936911136,6.396228119208117,0.025456033938755736,0.010404898878244695,1.1331003095062406,1677898540.962,0.9949515368240961,5486,1.1331003095062406,2
1677898534792,0.1303665339946746,-0.1423188000917434,0.0778186321258544,-0.0210113525390625,-0.7833099365234375,-0.25048828125,-11.872411727905272,-10.77129364013672,-14.60284423828125,24.78766065731737,120.9983471131636,91.9492999901995,6.094524578126404,-0.009270274254775656,-0.037905534690959086,0.8217283888794917,1677898534.792,0.9949515368240961,5296,0.8217283888794917,2
1677898534208,0.0367457643151283,-0.1123712807893753,0.0354802310466766,-0.0010223388671875,-1.1407928466796875,-0.33514404296875,-12.20068359375,-10.638341903686523,-14.866973876953123,24.78766065731737,120.9983471131636,91.9492999901995,6.094524578126404,0.0159637013031616,-0.02656685343152443,1.1886001246378848,1677898534.208,0.9949515368240961,5279,1.1886001246378848,2
1677898528177,0.2115537971258163,0.0712041407823562,-0.0695447251200676,-0.0555419921875,-0.837249755859375,-0.3218536376953125,-12.057313919067385,-10.669384002685549,-12.129253387451172,24.78744182804459,120.99793635942484,92.76740812789647,5.043490502370266,-0.04278769358769772,-0.0927657374281726,0.8928748859259609,1677898528.177,0.9949515368240961,5094,0.8928748859259609,2
1677898528177,0.2115537971258163,0.0712041407823562,-0.0695447251200676,-0.0555419921875,-0.837249755859375,-0.3218536376953125,-12.057313919067385,-10.669384002685549,-12.129253387451172,24.78744182804459,120.99793635942484,92.76740812789647,5.043490502370266,-0.04278769358769772,-0.0927657374281726,0.8928748859259609,1677898528.177,0.9949515368240961,5093,0.8928748859259609,2
1677898528177,0.2115537971258163,0.0712041407823562,-0.0695447251200676,-0.0555419921875,-0.837249755859375,-0.3218536376953125,-12.057313919067385,-10.669384002685549,-12.129253387451172,24.78743889297554,120.99788647915096,92.98211527336387,4.821017515386105,-0.04278769358769772,-0.0927657374281726,0.8928748859259609,1677898528.177,0.9949515368240961,5094,0.8928748859259609,2
1677898528177,0.2115537971258163,0.0712041407823562,-0.0695447251200676,-0.0555419921875,-0.837249755859375,-0.3218536376953125,-12.057313919067385,-10.669384002685549,-12.129253387451172,24.78743889297554,120.99788647915096,92.98211527336387,4.821017515386105,-0.04278769358769772,-0.0927657374281726,0.8928748859259609,1677898528.177,0.9949515368240961,5093,0.8928748859259609,2
1677898528171,-0.0490804612636566,-0.1702218055725097,0.0746550634503364,-0.0555419921875,-0.837249755859375,-0.3218536376953125,-12.057313919067385,-10.669384002685549,-12.129253387451172,24.78743889297554,120.99788647915096,92.98211527336387,4.821017515386105,-0.04278769358769772,-0.0927657374281726,0.8928748859259609,1677898528.171,0.9949515368240961,5092,0.8928748859259609,2
1677898527662,-0.0485227964818477,-0.1309846490621566,0.0562808476388454,-0.025604248046875,-0.8050537109375,-0.2615966796875,-11.784904479980469,-10.808965682983398,-13.222885131835938,24.78743889297554,120.99788647915096,92.98211527336387,4.821017515386105,-0.01352138285516713,-0.04296957736907825,0.8456776368464624,1677898527.662,0.9949515368240961,5077,0.8456776368464624,2
1677898527656,0.1163700222969055,0.0356085933744907,0.1355104297399521,-0.025604248046875,-0.8050537109375,-0.2615966796875,-11.784904479980469,-10.808965682983398,-13.222885131835938,24.78743889297554,120.99788647915096,92.98211527336387,4.821017515386105,-0.01352138285516713,-0.04296957736907825,0.8456776368464624,1677898527.656,0.9949515368240961,5076,0.8456776368464624,2
1677898527559,0.1163700222969055,0.0356085933744907,0.1355104297399521,-0.025604248046875,-0.8050537109375,-0.2615966796875,-11.550979614257812,-10.81049633026123,-13.900653839111328,24.78743889297554,120.99788647915096,92.98211527336387,4.821017515386105,-0.01352138285516713,-0.04296957736907825,0.8456776368464624,1677898527.559,0.9949515368240961,5075,0.8456776368464624,2
1677898526044,-0.2007679939270019,-0.2696599662303924,0.0325315780937671,-0.0789947509765625,-1.0683746337890625,-0.2785491943359375,-9.421165466308594,-10.809436798095703,-13.431526184082031,24.78742235648709,120.99776888974834,93.02801404893398,4.529694369538224,-0.06321043122865955,0.009221196946023025,1.105067234778831,1677898526.044,0.9949515368240961,5026,1.105067234778831,2
1677898525955,-0.2007679939270019,-0.2696599662303924,0.0325315780937671,-0.0789947509765625,-1.0683746337890625,-0.2785491943359375,-9.90411376953125,-10.449378967285156,-12.71930694580078,24.78742235648709,120.99776888974834,93.02801404893398,4.529694369538224,-0.06321043122865955,0.009221196946023025,1.105067234778831,1677898525.955,0.9949515368240961,5025,1.105067234778831,2
1677898525645,0.0400587357580661,-0.1126485168933868,0.0322639308869838,-0.040924072265625,-0.75787353515625,-0.3349151611328125,-10.195894241333008,-9.859657287597656,-11.83063507080078,24.78742235648709,120.99776888974834,93.02801404893398,4.529694369538224,-0.02921779370115185,-0.12604329280547508,0.819435567331344,1677898525.645,0.9949515368240961,5014,0.819435567331344,2
1677898525557,0.0400587357580661,-0.1126485168933868,0.0322639308869838,-0.040924072265625,-0.75787353515625,-0.3349151611328125,-10.267297744750977,-10.192248344421388,-11.681594848632812,24.78742235648709,120.99776888974834,93.02801404893398,4.529694369538224,-0.02921779370115185,-0.12604329280547508,0.819435567331344,1677898525.557,0.9949515368240961,5013,0.819435567331344,2
1677898458384,-0.0290439017117023,-0.0087082702666521,0.0608495026826858,-0.025177001953125,-1.1045379638671875,-0.2124481201171875,24.0472354888916,-18.258766174316406,35.17789840698242,24.78878996889984,120.99528304643098,88.18863951880485,5.345326983588476,-0.009145169425403023,0.08245806280228124,1.122002331792418,1677898458.384,0.9966861408334821,2943,1.122002331792418,2
1677898458284,-0.0290439017117023,-0.0087082702666521,0.0608495026826858,-0.025177001953125,-1.1045379638671875,-0.2124481201171875,24.552608489990234,-18.47704696655273,33.93851089477539,24.78878996889984,120.99528304643098,88.18863951880485,5.345326983588476,-0.009145169425403023,0.08245806280228124,1.122002331792418,1677898458.284,0.9966861408334821,2942,1.122002331792418,2
1677898458278,-0.0290439017117023,-0.0087082702666521,0.0608495026826858,-0.0228729248046875,-1.089996337890625,-0.228057861328125,24.552608489990234,-18.47704696655273,33.93851089477539,24.78878996889984,120.99528304643098,88.18863951880485,5.345326983588476,-0.006983877781198386,0.06360060369731957,1.1119944982229573,1677898458.278,0.9966861408334821,2941,1.1119944982229573,2
1677898458269,-0.1753563731908798,0.0173576846718788,0.0323289111256599,-0.0228729248046875,-1.089996337890625,-0.228057861328125,24.552608489990234,-18.47704696655273,33.93851089477539,24.78878996889984,120.99528304643098,88.18863951880485,5.345326983588476,-0.006983877781198386,0.06360060369731957,1.1119944982229573,1677898458.269,0.9966861408334821,2940,1.1119944982229573,2
1677898458210,-0.1753563731908798,0.0173576846718788,0.0323289111256599,-0.0228729248046875,-1.089996337890625,-0.228057861328125,25.05493927001953,-17.72515869140625,33.66593933105469,24.78878996889984,120.99528304643098,88.18863951880485,5.345326983588476,-0.006983877781198386,0.06360060369731957,1.1119944982229573,1677898458.21,0.9966861408334821,2939,1.1119944982229573,2
1677898458205,-0.1753563731908798,0.0173576846718788,0.0323289111256599,0.100616455078125,-1.0848236083984375,-0.2168426513671875,25.05493927001953,-17.72515869140625,33.66593933105469,24.78878996889984,120.99528304643098,88.18863951880485,5.345326983588476,0.11637980264983973,0.07308223539106964,1.1023163775561329,1677898458.205,0.9966861408334821,2938,1.1023163775561329,2
1677898458184,-0.1651905477046966,-0.1080303266644477,0.083827257156372,0.100616455078125,-1.0848236083984375,-0.2168426513671875,25.05493927001953,-17.72515869140625,33.66593933105469,24.78878996889984,120.99528304643098,88.18863951880485,5.345326983588476,0.11637980264983973,0.07308223539106964,1.1023163775561329,1677898458.184,0.9966861408334821,2937,1.1023163775561329,2
1677898458182,-0.1651905477046966,-0.1080303266644477,0.083827257156372,0.100616455078125,-1.0848236083984375,-0.2168426513671875,25.05493927001953,-17.72515869140625,33.66593933105469,24.788845080569484,120.9952850731778,88.11253463849425,5.420688822167655,0.11637980264983973,0.07308223539106964,1.1023163775561329,1677898458.182,0.9966861408334821,2936,1.1023163775561329,2
1677898458096,-0.1651905477046966,-0.1080303266644477,0.083827257156372,0.100616455078125,-1.0848236083984375,-0.2168426513671875,26.143939971923828,-16.818553924560547,33.86750411987305,24.788845080569484,120.9952850731778,88.11253463849425,5.420688822167655,0.11637980264983973,0.07308223539106964,1.1023163775561329,1677898458.096,0.9966861408334821,2935,1.1023163775561329,2
1677898495654,0.2883846461772918,-0.0219375230371952,-0.0337702147662639,-0.07879638671875,-0.8196258544921875,-0.1874542236328125,-15.73530387878418,-12.249990463256836,12.859085083007812,24.78765294211158,120.99606234001446,91.93058319482952,4.484388429420518,-0.0667828853513993,0.03240982023040334,0.8412039869416541,1677898495.654,0.9897052989152569,4092,0.8412039869416541,2
1677898534724,0.1303665339946746,-0.1423188000917434,0.0778186321258544,-0.0210113525390625,-0.7833099365234375,-0.25048828125,-11.837814331054688,-10.733650207519531,-14.927139282226562,24.78766065731737,120.9983471131636,91.9492999901995,6.094524578126404,-0.009270274254775656,-0.037905534690959086,0.8217283888794917,1677898534.724,0.9949515368240961,5295,0.8217283888794917,2
1677898462821,-0.0451597534120082,0.1206590384244918,-0.0995377749204635,-0.06219482421875,-0.8492279052734375,-0.177215576171875,28.28546524047852,-17.07772445678711,32.365203857421875,24.78857268601752,120.9952715597928,88.72177194803953,5.596034347557265,-0.049812702262618636,0.0500025821049489,0.8668794773027996,1677898462.821,0.9966861408334821,3080,0.8668794773027996,2
1677898462917,0.0798157379031181,0.0999098196625709,-0.0587687753140926,-0.06219482421875,-0.8492279052734375,-0.177215576171875,27.86596298217773,-16.88381576538086,32.06557846069336,24.78857268601752,120.9952715597928,88.72177194803953,5.596034347557265,-0.049812702262618636,0.0500025821049489,0.8668794773027996,1677898462.917,0.9966861408334821,3082,0.8668794773027996,2
1677898534193,-0.326739490032196,-0.057399109005928,0.0789800360798835,-0.0010223388671875,-1.1407928466796875,-0.33514404296875,-12.20068359375,-10.638341903686523,-14.866973876953123,24.78766065731737,120.9983471131636,91.9492999901995,6.094524578126404,0.0159637013031616,-0.02656685343152443,1.1886001246378848,1677898534.193,0.9949515368240961,5278,1.1886001246378848,2
1677898534171,-0.326739490032196,-0.057399109005928,0.0789800360798835,-0.0010223388671875,-1.1407928466796875,-0.33514404296875,-12.502748489379885,-10.5295991897583,-14.702049255371094,24.78766065731737,120.9983471131636,91.9492999901995,6.094524578126404,0.0159637013031616,-0.02656685343152443,1.1886001246378848,1677898534.171,0.9949515368240961,5277,1.1886001246378848,2
1677898534112,-0.326739490032196,-0.057399109005928,0.0789800360798835,-0.0010223388671875,-1.1407928466796875,-0.33514404296875,-12.502748489379885,-10.5295991897583,-14.702049255371094,24.787632987508943,120.99830131641852,92.19842481520028,6.796375480851302,0.0159637013031616,-0.02656685343152443,1.1886001246378848,1677898534.112,0.9949515368240961,5276,1.1886001246378848,2
1677898532995,0.2842897772789001,-0.0790809690952301,0.0832086056470871,-0.0824737548828125,-0.83807373046875,-0.25634765625,-12.052286148071287,-10.257731437683104,-13.744182586669922,24.787587878470298,120.99822664448016,92.34796451684088,6.6215852047253145,-0.06994904796363434,-0.029304446169253456,0.8770017097673413,1677898532.995,0.9949515368240961,5240,0.8770017097673413,2
1677898532891,0.2842897772789001,-0.0790809690952301,0.0832086056470871,-0.0824737548828125,-0.83807373046875,-0.25634765625,-11.907129287719728,-10.377010345458984,-14.17898178100586,24.787587878470298,120.99822664448016,92.34796451684088,6.6215852047253145,-0.06994904796363434,-0.029304446169253456,0.8770017097673413,1677898532.891,0.9949515368240961,5239,0.8770017097673413,2
1677898532590,0.0629238411784172,0.0827087312936782,0.0725146830081939,-0.0559539794921875,-0.8212127685546875,-0.237030029296875,-12.276691436767578,-10.32925510406494,-14.038928985595703,24.787587878470298,120.99822664448016,92.34796451684088,6.6215852047253145,-0.04373647372646654,-0.015043005110485258,0.8553159198272673,1677898532.59,0.9949515368240961,5228,0.8553159198272673,2
1677898532502,0.0629238411784172,0.0827087312936782,0.0725146830081939,-0.0559539794921875,-0.8212127685546875,-0.237030029296875,-12.361801147460938,-10.188759803771973,-14.138957977294922,24.787587878470298,120.99822664448016,92.34796451684088,6.6215852047253145,-0.04373647372646654,-0.015043005110485258,0.8553159198272673,1677898532.502,0.9949515368240961,5227,0.8553159198272673,2
1677898532496,0.0755442902445793,-0.0092393048107624,0.0145326033234596,-0.0559539794921875,-0.8212127685546875,-0.237030029296875,-12.361801147460938,-10.188759803771973,-14.138957977294922,24.787587878470298,120.99822664448016,92.34796451684088,6.6215852047253145,-0.04373647372646654,-0.015043005110485258,0.8553159198272673,1677898532.496,0.9949515368240961,5226,0.8553159198272673,2
1677898465137,0.0992546826601028,0.0800178721547126,-0.0057183392345905,0.0329437255859375,-0.84130859375,-0.228607177734375,29.159425735473636,-17.88410186767578,30.901268005371094,24.788430779558325,120.99526514378202,88.88299813680351,6.045155447386209,0.04539807251166454,-0.0016784692302159732,0.8712536246340838,1677898465.137,0.9984248164439979,3151,0.8712536246340838,2
1677898465131,0.0930724218487739,0.0367830470204353,0.0122990105301141,0.0329437255859375,-0.84130859375,-0.228607177734375,29.159425735473636,-17.88410186767578,30.901268005371094,24.788430779558325,120.99526514378202,88.88299813680351,6.045155447386209,0.04539807251166454,-0.0016784692302159732,0.8712536246340838,1677898465.131,0.9984248164439979,3150,0.8712536246340838,2
1677898465042,0.0930724218487739,0.0367830470204353,0.0122990105301141,0.0329437255859375,-0.84130859375,-0.228607177734375,29.110109329223636,-17.81210708618164,30.849699020385746,24.788430779558325,120.99526514378202,88.88299813680351,6.045155447386209,0.04539807251166454,-0.0016784692302159732,0.8712536246340838,1677898465.042,0.9984248164439979,3149,0.8712536246340838,2
1677898530973,-0.0740230977535247,0.0309150386601686,-0.0164588671177625,0.032257080078125,-1.10443115234375,-0.160797119140625,-11.810344696044922,-11.587265014648438,-13.447811126708984,24.78744880340418,120.99805490281952,92.60323521494864,5.574953128321524,0.04808941184927705,0.13229987414407932,1.1076319581773928,1677898530.973,0.9949515368240961,5179,1.1076319581773928,2
1677898530967,-0.078980304300785,0.1106112003326416,0.0793190598487854,0.032257080078125,-1.10443115234375,-0.160797119140625,-11.810344696044922,-11.587265014648438,-13.447811126708984,24.78744880340418,120.99805490281952,92.60323521494864,5.574953128321524,0.04808941184927705,0.13229987414407932,1.1076319581773928,1677898530.967,0.9949515368240961,5178,1.1076319581773928,2
1677898530899,-0.078980304300785,0.1106112003326416,0.0793190598487854,0.032257080078125,-1.10443115234375,-0.160797119140625,-12.105180740356444,-11.52694606781006,-13.655742645263672,24.78744880340418,120.99805490281952,92.60323521494864,5.574953128321524,0.04808941184927705,0.13229987414407932,1.1076319581773928,1677898530.899,0.9949515368240961,5177,1.1076319581773928,2
1677898529877,0.3381881713867187,0.2065406590700149,-0.0211388412863016,-0.0499114990234375,-0.819427490234375,-0.1656646728515625,-12.651151657104492,-10.311907768249512,-12.994159698486328,24.78744513945937,120.99799263555482,92.7571649858728,5.283923775666641,-0.037984749697809066,0.05339622957323936,0.8349271553706619,1677898529.877,0.9949515368240961,5145,0.8349271553706619,2
1677898529870,-0.0673806369304657,0.178011804819107,-0.0309512577950954,-0.0499114990234375,-0.819427490234375,-0.1656646728515625,-12.651151657104492,-10.311907768249512,-12.994159698486328,24.78744513945937,120.99799263555482,92.7571649858728,5.283923775666641,-0.037984749697809066,0.05339622957323936,0.8349271553706619,1677898529.87,0.9949515368240961,5144,0.8349271553706619,2
1677898529782,-0.0673806369304657,0.178011804819107,-0.0309512577950954,-0.0499114990234375,-0.819427490234375,-0.1656646728515625,-12.464733123779297,-10.260380744934082,-12.659263610839844,24.78744513945937,120.99799263555482,92.7571649858728,5.283923775666641,-0.037984749697809066,0.05339622957323936,0.8349271553706619,1677898529.782,0.9949515368240961,5143,0.8349271553706619,2
1677898396771,0.1435755342245102,-0.0528736002743244,0.0662708953022956,0.0264129638671875,-1.1227264404296875,-0.303253173828125,40.99068069458008,-14.338428497314451,-33.79529571533203,24.789028785349217,120.99822123225178,88.98773041926324,4.107820037753837,0.04302830069964526,-0.0004796572100807528,1.1624642477964038,1677898396.771,0.9927694927745723,1046,1.1624642477964038,2
1677898396766,-0.1702087521553039,-0.0602305829524993,0.0864731073379516,0.0264129638671875,-1.1227264404296875,-0.303253173828125,40.99068069458008,-14.338428497314451,-33.79529571533203,24.789028785349217,120.99822123225178,88.98773041926324,4.107820037753837,0.04302830069964526,-0.0004796572100807528,1.1624642477964038,1677898396.766,0.9927694927745723,1045,1.1624642477964038,2
1677898396673,-0.1702087521553039,-0.0602305829524993,0.0864731073379516,0.0264129638671875,-1.1227264404296875,-0.303253173828125,41.19557189941406,-13.98550033569336,-33.79682159423828,24.789028785349217,120.99822123225178,88.98773041926324,4.107820037753837,0.04302830069964526,-0.0004796572100807528,1.1624642477964038,1677898396.673,0.9927694927745723,1044,1.1624642477964038,2
1677898396667,-0.0774247497320175,0.0762625485658645,0.0726267993450164,0.0264129638671875,-1.1227264404296875,-0.303253173828125,41.19557189941406,-13.98550033569336,-33.79682159423828,24.789028785349217,120.99822123225178,88.98773041926324,4.107820037753837,0.04302830069964526,-0.0004796572100807528,1.1624642477964038,1677898396.667,0.9927694927745723,1043,1.1624642477964038,2
1677898462827,0.0798157379031181,0.0999098196625709,-0.0587687753140926,-0.06219482421875,-0.8492279052734375,-0.177215576171875,28.28546524047852,-17.07772445678711,32.365203857421875,24.78857268601752,120.9952715597928,88.72177194803953,5.596034347557265,-0.049812702262618636,0.0500025821049489,0.8668794773027996,1677898462.827,0.9966861408334821,3081,0.8668794773027996,2
1677898524033,0.1682766228914261,0.338657408952713,-0.0262228157371282,0.0708465576171875,-0.83355712890625,-0.1000823974609375,-12.767990112304688,-12.832794189453123,-3.0014686584472656,24.78740942048532,120.99762669900151,93.1883857762441,5.327595267732176,0.08271192533592243,0.12039546548688894,0.829769171188943,1677898524.033,0.9949515368240961,4964,0.829769171188943,2
1677898474914,-0.0432569272816181,0.2278060019016266,-0.0045486791059374,-0.0139923095703125,-0.8607025146484375,-0.2401123046875,22.32707977294922,-16.37109375,37.84514617919922,24.78789413648554,120.99525431284604,89.46104905102402,3.5504333957541867,-0.0012227965348385326,-0.007737369010973966,0.8936426356217683,1677898474.914,0.9984248164439979,3452,0.8936426356217683,2
1677898474991,0.1222460195422172,0.2460254877805709,-0.0396459475159645,-0.0139923095703125,-0.8607025146484375,-0.2401123046875,21.3930721282959,-16.220870971679688,37.81550598144531,24.78789413648554,120.99525431284604,89.46104905102402,3.5504333957541867,-0.0012227965348385326,-0.007737369010973966,0.8936426356217683,1677898474.991,0.9984248164439979,3454,0.8936426356217683,2
1677898486680,-0.0676615983247757,0.0155776282772421,0.1065155267715454,0.019317626953125,-1.0633392333984375,-0.3127593994140625,-18.368885040283203,-13.811655044555664,9.32284927368164,24.78767196746292,120.99558087440386,90.53915853705256,4.787746110804519,0.03514971386517371,-0.02512016403005779,1.1077072776196883,1677898486.68,0.9897052989152569,3814,1.1077072776196883,2
1677898486586,-0.0676615983247757,0.0155776282772421,0.1065155267715454,0.019317626953125,-1.0633392333984375,-0.3127593994140625,-18.282115936279297,-13.732104301452637,9.30078125,24.78767196746292,120.99558087440386,90.53915853705256,4.787746110804519,0.03514971386517371,-0.02512016403005779,1.1077072776196883,1677898486.586,0.9897052989152569,3813,1.1077072776196883,2
1677898418816,-0.0350479967892169,-0.0198485385626554,0.027736822143197,-0.0348052978515625,-1.07025146484375,-0.2923736572265625,52.59523010253906,-13.759166717529297,-5.2636566162109375,24.78962349789116,120.99705044327402,86.92155292350799,6.419950494868692,-0.01894816318033895,-0.0036378226237714917,1.109846699124439,1677898418.816,0.9937643201223948,1724,1.109846699124439,2
1677898418723,-0.0350479967892169,-0.0198485385626554,0.027736822143197,-0.0348052978515625,-1.07025146484375,-0.2923736572265625,52.8140983581543,-13.915716171264648,-5.299854278564453,24.78962349789116,120.99705044327402,86.92155292350799,6.419950494868692,-0.01894816318033895,-0.0036378226237714917,1.109846699124439,1677898418.723,0.9937643201223948,1723,1.109846699124439,2
1677898484766,0.3366424739360809,-0.0499494485557079,0.0079964073374867,-0.08953857421875,-0.946502685546875,0.1232757568359375,-20.288063049316406,-12.441069602966309,10.04556655883789,24.787678556419653,120.99547103994072,90.38153330050407,4.602965200177596,-0.07692955185916149,0.36545693839240045,0.8829521348723544,1677898484.766,0.9897052989152569,3756,0.8829521348723544,2
1677898484761,-0.1763231009244918,-2.0506340661e-05,-0.039585493505001,-0.08953857421875,-0.946502685546875,0.1232757568359375,-20.288063049316406,-12.441069602966309,10.04556655883789,24.787678556419653,120.99547103994072,90.38153330050407,4.602965200177596,-0.07692955185916149,0.36545693839240045,0.8829521348723544,1677898484.761,0.9897052989152569,3755,0.8829521348723544,2
1677898484679,-0.1763231009244918,-2.0506340661e-05,-0.039585493505001,-0.08953857421875,-0.946502685546875,0.1232757568359375,-20.64899444580078,-12.167481422424316,9.929828643798828,24.787678556419653,120.99547103994072,90.38153330050407,4.602965200177596,-0.07692955185916149,0.36545693839240045,0.8829521348723544,1677898484.679,0.9897052989152569,3754,0.8829521348723544,2
1677898484673,-0.1763231009244918,-2.0506340661e-05,-0.039585493505001,0.0666961669921875,-0.9013214111328124,-0.0722503662109375,-20.64899444580078,-12.167481422424316,9.929828643798828,24.787678556419653,120.99547103994072,90.38153330050407,4.602965200177596,0.07939332835040812,0.16491081073160474,0.8880033244266587,1677898484.673,0.9897052989152569,3753,0.8880033244266587,2
1677898484666,0.1024739071726799,0.0379854664206504,-0.0178098902106285,0.0666961669921875,-0.9013214111328124,-0.0722503662109375,-20.64899444580078,-12.167481422424316,9.929828643798828,24.787678556419653,120.99547103994072,90.38153330050407,4.602965200177596,0.07939332835040812,0.16491081073160474,0.8880033244266587,1677898484.666,0.9897052989152569,3752,0.8880033244266587,2
1677898484563,0.1024739071726799,0.0379854664206504,-0.0178098902106285,0.0666961669921875,-0.9013214111328124,-0.0722503662109375,-20.37234115600586,-12.292716026306152,9.409114837646484,24.787678556419653,120.99547103994072,90.38153330050407,4.602965200177596,0.07939332835040812,0.16491081073160474,0.8880033244266587,1677898484.563,0.9897052989152569,3751,0.8880033244266587,2
1677898484557,-0.1145785078406333,0.0029313412960618,0.0251122768968343,0.0666961669921875,-0.9013214111328124,-0.0722503662109375,-20.37234115600586,-12.292716026306152,9.409114837646484,24.787678556419653,120.99547103994072,90.38153330050407,4.602965200177596,0.07939332835040812,0.16491081073160474,0.8880033244266587,1677898484.557,0.9897052989152569,3750,0.8880033244266587,2
1677898551014,0.2272762954235077,0.0983380228281021,-0.0053276536054909,0.07232666015625,-0.8327789306640625,-0.230316162109375,-4.43096923828125,-10.889270782470703,-25.69859313964844,24.78830577885555,120.99936343785714,86.24280712194741,7.06890623967292,0.0846656639170465,-0.00554930827127631,0.8629011288596887,1677898551.014,0.9901811318359145,5795,0.8629011288596887,2
1677898550927,0.2272762954235077,0.0983380228281021,-0.0053276536054909,0.07232666015625,-0.8327789306640625,-0.230316162109375,-4.860057830810547,-10.61762809753418,-24.98960876464844,24.78830577885555,120.99936343785714,86.24280712194741,7.06890623967292,0.0846656639170465,-0.00554930827127631,0.8629011288596887,1677898550.927,0.9901811318359145,5794,0.8629011288596887,2
1677898484467,-0.0510887503623962,-0.0789752453565597,0.0010247844038531,0.157989501953125,-1.155242919921875,-0.3280029296875,-20.49667358398437,-12.128973007202148,9.363998413085938,24.787678556419653,120.99547103994072,90.38153330050407,4.602965200177596,0.17513210112423833,-0.015909786409766702,1.1984191397390165,1677898484.467,0.9897052989152569,3746,1.1984191397390165,2
1677898484373,-0.0510887503623962,-0.0789752453565597,0.0010247844038531,0.157989501953125,-1.155242919921875,-0.3280029296875,-20.510482788085938,-12.106109619140623,9.622417449951172,24.787678556419653,120.99547103994072,90.38153330050407,4.602965200177596,0.17513210112423833,-0.015909786409766702,1.1984191397390165,1677898484.373,0.9897052989152569,3745,1.1984191397390165,2
1677898417806,0.3338357508182525,-0.0145134292542934,-0.019413910806179,-0.001007080078125,-0.883392333984375,-0.0643768310546875,51.86079788208008,-13.112408638000488,-4.5982513427734375,24.78964297321045,120.99709763766224,86.92737120762467,6.449760263408755,0.011420340618399038,0.16784475673101265,0.8696120513121677,1677898417.806,0.9937643201223948,1693,0.8696120513121677,2
1677898417719,0.3338357508182525,-0.0145134292542934,-0.019413910806179,-0.001007080078125,-0.883392333984375,-0.0643768310546875,51.55741500854492,-12.918617248535156,-4.120418548583984,24.78964297321045,120.99709763766224,86.92737120762467,6.449760263408755,0.011420340618399038,0.16784475673101265,0.8696120513121677,1677898417.719,0.9937643201223948,1692,0.8696120513121677,2
1677898417713,0.0636191889643669,0.1260530054569244,-0.0689910501241684,-0.001007080078125,-0.883392333984375,-0.0643768310546875,51.55741500854492,-12.918617248535156,-4.120418548583984,24.78964297321045,120.99709763766224,86.92737120762467,6.449760263408755,0.011420340618399038,0.16784475673101265,0.8696120513121677,1677898417.713,0.9937643201223948,1691,0.8696120513121677,2
1677898549301,-0.2697566449642181,0.0074504595249891,0.0952175930142402,0.11444091796875,-1.08563232421875,-0.437591552734375,-9.122518539428713,-10.483929634094238,-19.03849029541016,24.788260640895043,120.99930776816576,86.63380172569305,7.450307473118869,0.13103528912137982,-0.13984274716303358,1.1603682144859833,1677898549.301,0.9901811318359145,5743,1.1603682144859833,2
1677898549203,-0.2697566449642181,0.0074504595249891,0.0952175930142402,0.11444091796875,-1.08563232421875,-0.437591552734375,-9.06301498413086,-10.611797332763672,-18.91205596923828,24.788260640895043,120.99930776816576,86.63380172569305,7.450307473118869,0.13103528912137982,-0.13984274716303358,1.1603682144859833,1677898549.203,0.9901811318359145,5742,1.1603682144859833,2
1677898481638,0.2069230824708938,0.037936195731163,-0.0321076028048992,0.128631591796875,-1.076171875,-0.2446746826171875,-14.370332717895508,-14.85067367553711,14.312810897827148,24.787771118405157,120.99526032843436,90.23097782675175,3.427194677847832,0.1443762612642927,0.04395751909918705,1.1008092127889484,1677898481.638,0.9984248164439979,3660,1.1008092127889484,2
1677898421547,-0.8611999750137329,0.5205920338630676,-0.4708793759346008,-0.190887451171875,-0.9260101318359376,0.0207366943359375,52.48902893066406,-14.210002899169922,-6.727241516113281,24.789594230620622,120.99686332258652,87.03539096470922,4.796711666084405,-0.178169320863653,0.26111885209666086,0.8913110747390018,1677898421.547,0.9937643201223948,1810,0.8913110747390018,2
1677898481632,-0.1380303055047989,0.1485844105482101,0.0397886931896209,0.128631591796875,-1.076171875,-0.2446746826171875,-14.370332717895508,-14.85067367553711,14.312810897827148,24.787771118405157,120.99526032843436,90.23097782675175,3.427194677847832,0.1443762612642927,0.04395751909918705,1.1008092127889484,1677898481.632,0.9984248164439979,3659,1.1008092127889484,2
1677898421635,-0.8611999750137329,0.5205920338630676,-0.4708793759346008,-0.190887451171875,-0.9260101318359376,0.0207366943359375,53.348731994628906,-14.267738342285156,-7.618400573730469,24.789594230620622,120.99686332258652,87.03539096470922,4.796711666084405,-0.178169320863653,0.26111885209666086,0.8913110747390018,1677898421.635,0.9937643201223948,1811,0.8913110747390018,2
1677898421648,1.038183569908142,-0.4001399576663971,0.2645144760608673,-0.3095703125,-0.8897552490234375,-0.08935546875,53.348731994628906,-14.267738342285156,-7.618400573730469,24.789594230620622,120.99686332258652,87.03539096470922,4.796711666084405,-0.29693067031782444,0.14538425957525508,0.8866668909088697,1677898421.648,0.9937643201223948,1813,0.8866668909088697,2
1677898428787,0.1515897959470749,0.1652475446462631,-0.0322258472442626,-0.1022491455078125,-1.1098175048828125,-0.1316375732421875,51.49532699584961,-15.361318588256836,-11.315235137939451,24.7895473709199,120.99651858121048,87.64048685878515,4.780304142622415,-0.0864372530504844,0.16185614142634708,1.107162780876481,1677898428.787,1.0048485009208001,2032,1.107162780876481,2
1677898428782,-0.0034432008396834,0.1573922932147979,0.0476482138037681,-0.1022491455078125,-1.1098175048828125,-0.1316375732421875,51.49532699584961,-15.361318588256836,-11.315235137939451,24.7895473709199,120.99651858121048,87.64048685878515,4.780304142622415,-0.0864372530504844,0.16185614142634708,1.107162780876481,1677898428.782,1.0048485009208001,2031,1.107162780876481,2
1677898428697,-0.0034432008396834,0.1573922932147979,0.0476482138037681,-0.1022491455078125,-1.1098175048828125,-0.1316375732421875,51.761531829833984,-15.330946922302246,-11.119384765625,24.7895473709199,120.99651858121048,87.64048685878515,4.780304142622415,-0.0864372530504844,0.16185614142634708,1.107162780876481,1677898428.697,1.0048485009208001,2030,1.107162780876481,2
1677898494433,0.0601355098187923,-0.0280129928141832,0.0288026202470064,-0.1768646240234375,-0.784698486328125,-0.22808837890625,-17.538637161254883,-12.777077674865724,11.312828063964844,24.787654007295355,120.99601597960977,91.86715750861912,4.612649467274206,-0.16517181294060804,-0.015916652819590454,0.8194644901651426,1677898494.433,0.9897052989152569,4054,0.8194644901651426,2
1677898494428,0.2371640801429748,-0.093487337231636,0.084989458322525,-0.1768646240234375,-0.784698486328125,-0.22808837890625,-17.538637161254883,-12.777077674865724,11.312828063964844,24.787654007295355,120.99601597960977,91.86715750861912,4.612649467274206,-0.16517181294060804,-0.015916652819590454,0.8194644901651426,1677898494.428,0.9897052989152569,4053,0.8194644901651426,2
1677898494340,0.2371640801429748,-0.093487337231636,0.084989458322525,-0.1768646240234375,-0.784698486328125,-0.22808837890625,-17.90557861328125,-12.721490859985352,11.06888198852539,24.787654007295355,120.99601597960977,91.86715750861912,4.612649467274206,-0.16517181294060804,-0.015916652819590454,0.8194644901651426,1677898494.34,0.9897052989152569,4052,0.8194644901651426,2
1677898494334,0.2371640801429748,-0.093487337231636,0.084989458322525,0.04534912109375,-0.844818115234375,-0.27099609375,-17.90557861328125,-12.721490859985352,11.06888198852539,24.787654007295355,120.99601597960977,91.86715750861912,4.612649467274206,0.05800832525734916,-0.04169169912470644,0.8854998079417233,1677898494.334,0.9897052989152569,4051,0.8854998079417233,2
1677898494327,0.3112758696079254,-0.0826658532023429,0.0802069529891014,0.04534912109375,-0.844818115234375,-0.27099609375,-17.90557861328125,-12.721490859985352,11.06888198852539,24.787654007295355,120.99601597960977,91.86715750861912,4.612649467274206,0.05800832525734916,-0.04169169912470644,0.8854998079417233,1677898494.327,0.9897052989152569,4050,0.8854998079417233,2
1677898494236,0.3112758696079254,-0.0826658532023429,0.0802069529891014,0.04534912109375,-0.844818115234375,-0.27099609375,-17.88787078857422,-12.834583282470703,10.50543975830078,24.787654007295355,120.99601597960977,91.86715750861912,4.612649467274206,0.05800832525734916,-0.04169169912470644,0.8854998079417233,1677898494.236,0.9897052989152569,4049,0.8854998079417233,2
1677898427781,0.1131926029920578,-0.2247785180807113,0.0566137433052063,-0.0225372314453125,-1.0759735107421875,-0.2457733154296875,52.12855911254883,-15.236309051513672,-7.151191711425781,24.789552258988977,120.9965784032145,87.51540691498667,4.553777553035,-0.006775777171101669,0.042845130386647,1.1030638371568835,1677898427.781,1.0048485009208001,2001,1.1030638371568835,2
1677898427774,-0.0356267020106315,-0.1369674354791641,0.0653100311756134,-0.0225372314453125,-1.0759735107421875,-0.2457733154296875,52.12855911254883,-15.236309051513672,-7.151191711425781,24.789552258988977,120.9965784032145,87.51540691498667,4.553777553035,-0.006775777171101669,0.042845130386647,1.1030638371568835,1677898427.774,1.0048485009208001,2000,1.1030638371568835,2
1677898427691,-0.0356267020106315,-0.1369674354791641,0.0653100311756134,-0.0225372314453125,-1.0759735107421875,-0.2457733154296875,52.29486083984375,-15.169306755065918,-7.291095733642578,24.789552258988977,120.9965784032145,87.51540691498667,4.553777553035,-0.006775777171101669,0.042845130386647,1.1030638371568835,1677898427.691,1.0048485009208001,1999,1.1030638371568835,2
1677898489913,-0.2086448222398758,0.0405013523995876,-0.1021639183163642,-0.0951995849609375,-0.8419036865234375,-0.1144256591796875,-17.990184783935547,-12.435650825500488,9.741405487060549,24.787666184698168,120.9957427088903,90.91743024811149,4.364506926133268,-0.08314874710368753,0.10872000721968268,0.8439337981870583,1677898489.913,0.9897052989152569,3914,0.8439337981870583,2
1677898489905,-0.0544177033007144,0.0489193387329578,-0.0990642681717872,-0.0951995849609375,-0.8419036865234375,-0.1144256591796875,-17.990184783935547,-12.435650825500488,9.741405487060549,24.787666184698168,120.9957427088903,90.91743024811149,4.364506926133268,-0.08314874710368753,0.10872000721968268,0.8439337981870583,1677898489.905,0.9897052989152569,3913,0.8439337981870583,2
1677898489800,-0.0544177033007144,0.0489193387329578,-0.0990642681717872,-0.0951995849609375,-0.8419036865234375,-0.1144256591796875,-18.341476440429688,-11.390532493591309,9.65835189819336,24.787666184698168,120.9957427088903,90.91743024811149,4.364506926133268,-0.08314874710368753,0.10872000721968268,0.8439337981870583,1677898489.8,0.9897052989152569,3912,0.8439337981870583,2
1677898489794,-0.0544177033007144,0.0489193387329578,-0.0990642681717872,-0.157012939453125,-0.82537841796875,-0.1305389404296875,-18.341476440429688,-11.390532493591309,9.65835189819336,24.787666184698168,120.9957427088903,90.91743024811149,4.364506926133268,-0.1451238349154264,0.08885991049868286,0.8330582211456886,1677898489.794,0.9897052989152569,3911,0.8330582211456886,2
1677898489785,0.1024603247642517,-0.1386052817106247,0.0124494787305593,-0.157012939453125,-0.82537841796875,-0.1305389404296875,-18.341476440429688,-11.390532493591309,9.65835189819336,24.787666184698168,120.9957427088903,90.91743024811149,4.364506926133268,-0.1451238349154264,0.08885991049868286,0.8330582211456886,1677898489.785,0.9897052989152569,3910,0.8330582211456886,2
1677898489719,0.1024603247642517,-0.1386052817106247,0.0124494787305593,-0.157012939453125,-0.82537841796875,-0.1305389404296875,-19.089767456054688,-11.014063835144045,10.814834594726562,24.787666184698168,120.9957427088903,90.91743024811149,4.364506926133268,-0.1451238349154264,0.08885991049868286,0.8330582211456886,1677898489.719,0.9897052989152569,3909,0.8330582211456886,2
1677898489715,-0.0295570939779281,-0.1099462062120437,0.0568355843424797,-0.157012939453125,-0.82537841796875,-0.1305389404296875,-19.089767456054688,-11.014063835144045,10.814834594726562,24.787666184698168,120.9957427088903,90.91743024811149,4.364506926133268,-0.1451238349154264,0.08885991049868286,0.8330582211456886,1677898489.715,0.9897052989152569,3908,0.8330582211456886,2
1677898421741,0.4626693725585937,-0.9058659672737122,0.4285034239292145,-0.3095703125,-0.8897552490234375,-0.08935546875,54.19854736328125,-14.435611724853516,-7.251625061035156,24.789594230620622,120.99686332258652,87.03539096470922,4.796711666084405,-0.29693067031782444,0.14538425957525508,0.8866668909088697,1677898421.741,0.9937643201223948,1815,0.8866668909088697,2
1677898421734,1.038183569908142,-0.4001399576663971,0.2645144760608673,-0.3095703125,-0.8897552490234375,-0.08935546875,54.19854736328125,-14.435611724853516,-7.251625061035156,24.789594230620622,120.99686332258652,87.03539096470922,4.796711666084405,-0.29693067031782444,0.14538425957525508,0.8866668909088697,1677898421.734,0.9937643201223948,1814,0.8866668909088697,2
1677898421642,-0.8611999750137329,0.5205920338630676,-0.4708793759346008,-0.3095703125,-0.8897552490234375,-0.08935546875,53.348731994628906,-14.267738342285156,-7.618400573730469,24.789594230620622,120.99686332258652,87.03539096470922,4.796711666084405,-0.29693067031782444,0.14538425957525508,0.8866668909088697,1677898421.642,0.9937643201223948,1812,0.8866668909088697,2
1677898474919,0.1222460195422172,0.2460254877805709,-0.0396459475159645,-0.0139923095703125,-0.8607025146484375,-0.2401123046875,22.32707977294922,-16.37109375,37.84514617919922,24.78789413648554,120.99525431284604,89.46104905102402,3.5504333957541867,-0.0012227965348385326,-0.007737369010973966,0.8936426356217683,1677898474.919,0.9984248164439979,3453,0.8936426356217683,2
1677898481568,-0.1380303055047989,0.1485844105482101,0.0397886931896209,0.128631591796875,-1.076171875,-0.2446746826171875,-14.463134765625,-14.119928359985352,15.020515441894531,24.787771118405157,120.99526032843436,90.23097782675175,3.427194677847832,0.1443762612642927,0.04395751909918705,1.1008092127889484,1677898481.568,0.9984248164439979,3658,1.1008092127889484,2
1677898481449,0.0470950752496719,-0.0879879146814346,0.1169188991189003,0.038299560546875,-0.8444366455078125,-0.1949615478515625,-14.656949996948242,-13.783084869384766,16.13450813293457,24.787771118405157,120.99526032843436,90.23097782675175,3.427194677847832,0.050671341416142386,0.031621188003941286,0.8654378229448699,1677898481.449,0.9984248164439979,3654,0.8654378229448699,2
1677898411679,0.0964764729142189,0.0327808484435081,0.0773073062300682,0.07916259765625,-0.8552093505859375,-0.243011474609375,51.5482063293457,-10.965005874633787,-15.628410339355469,24.78964243586787,120.99744723765124,87.67734754085541,6.656234896591597,0.09185759880302537,-0.01196675826087415,0.8877630907105777,1677898411.679,0.9937643201223948,1506,0.8877630907105777,2
1677898544677,0.1470459103584289,0.1835868656635284,-0.1075019612908363,0.0186920166015625,-0.795013427734375,-0.3546905517578125,-8.440853118896484,-11.739618301391602,-13.844623565673828,24.788051884348384,120.99897674530784,88.7898432733491,7.386548461267891,0.030978185267251216,-0.13546685802403036,0.8595872333181198,1677898544.677,0.9901811318359145,5601,0.8595872333181198,2
1677898544670,0.1470459103584289,0.1835868656635284,-0.1075019612908363,-0.0626373291015625,-0.8272247314453125,-0.3106689453125,-8.440853118896484,-11.739618301391602,-13.844623565673828,24.788051884348384,120.99897674530784,88.7898432733491,7.386548461267891,-0.050062229008577354,-0.08457692134237896,0.8803862234816409,1677898544.67,0.9901811318359145,5600,0.8803862234816409,2
1677898544586,0.1470459103584289,0.1835868656635284,-0.1075019612908363,-0.0626373291015625,-0.8272247314453125,-0.3106689453125,-8.29766845703125,-12.091374397277832,-13.951335906982422,24.788051884348384,120.99897674530784,88.7898432733491,7.386548461267891,-0.050062229008577354,-0.08457692134237896,0.8803862234816409,1677898544.586,0.9901811318359145,5599,0.8803862234816409,2
1677898544477,-0.0859434008598327,0.4961136281490326,-0.1941276639699936,-0.24176025390625,-0.8265838623046875,-0.122589111328125,-7.953731536865234,-12.620501518249512,-13.472240447998049,24.788051884348384,120.99897674530784,88.7898432733491,7.386548461267891,-0.22987544238241225,0.09684941092566124,0.8333633448864973,1677898544.477,0.9901811318359145,5595,0.8333633448864973,2
1677898544471,0.0185965877026319,0.1340845674276352,-0.198503777384758,-0.24176025390625,-0.8265838623046875,-0.122589111328125,-7.953731536865234,-12.620501518249512,-13.472240447998049,24.788051884348384,120.99897674530784,88.7898432733491,7.386548461267891,-0.22987544238241225,0.09684941092566124,0.8333633448864973,1677898544.471,0.9901811318359145,5594,0.8333633448864973,2
1677898544371,0.0185965877026319,0.1340845674276352,-0.198503777384758,-0.24176025390625,-0.8265838623046875,-0.122589111328125,-8.250694274902344,-12.250618934631348,-13.317794799804688,24.788051884348384,120.99897674530784,88.7898432733491,7.386548461267891,-0.22987544238241225,0.09684941092566124,0.8333633448864973,1677898544.371,0.9901811318359145,5593,0.8333633448864973,2
1677898544365,0.0185965877026319,0.1340845674276352,-0.198503777384758,0.039581298828125,-0.8332977294921875,-0.15606689453125,-8.250694274902344,-12.250618934631348,-13.317794799804688,24.788051884348384,120.99897674530784,88.7898432733491,7.386548461267891,0.05165456543067278,0.06627426783574727,0.8445402228759673,1677898544.365,0.9901811318359145,5592,0.8445402228759673,2
1677898544359,0.0924614891409874,0.3192136883735657,-0.0714576691389083,0.039581298828125,-0.8332977294921875,-0.15606689453125,-8.250694274902344,-12.250618934631348,-13.317794799804688,24.788051884348384,120.99897674530784,88.7898432733491,7.386548461267891,0.05165456543067278,0.06627426783574727,0.8445402228759673,1677898544.359,0.9901811318359145,5591,0.8445402228759673,2
1677898544280,0.0924614891409874,0.3192136883735657,-0.0714576691389083,0.039581298828125,-0.8332977294921875,-0.15606689453125,-8.01348876953125,-12.456954956054688,-13.284976959228516,24.788051884348384,120.99897674530784,88.7898432733491,7.386548461267891,0.05165456543067278,0.06627426783574727,0.8445402228759673,1677898544.28,0.9901811318359145,5590,0.8445402228759673,2
1677898544275,-0.0461017154157161,-0.2318963408470153,0.0427290871739387,0.039581298828125,-0.8332977294921875,-0.15606689453125,-8.01348876953125,-12.456954956054688,-13.284976959228516,24.788051884348384,120.99897674530784,88.7898432733491,7.386548461267891,0.05165456543067278,0.06627426783574727,0.8445402228759673,1677898544.275,0.9901811318359145,5589,0.8445402228759673,2
1677898543766,-0.0109051121398806,0.0317651182413101,0.0386701636016368,0.077239990234375,-1.0618743896484375,-0.3290252685546875,-9.778448104858398,-14.993045806884766,-13.721515655517578,24.7880121376498,120.99891197940212,89.16406281664968,7.191752979171506,0.09310646925183383,-0.04120643202484797,1.1096999946712496,1677898543.766,0.9901811318359145,5572,1.1096999946712496,2
1677898543677,-0.0109051121398806,0.0317651182413101,0.0386701636016368,0.077239990234375,-1.0618743896484375,-0.3290252685546875,-10.185531616210938,-15.3314208984375,-13.96453857421875,24.7880121376498,120.99891197940212,89.16406281664968,7.191752979171506,0.09310646925183383,-0.04120643202484797,1.1096999946712496,1677898543.677,0.9901811318359145,5571,1.1096999946712496,2
1677898542452,-0.0495973788201808,0.0591405518352985,-0.0224565733224153,0.0487518310546875,-1.0662078857421875,-0.2883758544921875,-12.062612533569336,-11.692462921142578,-12.45720672607422,24.78797632039426,120.99885392248788,89.58635027892888,6.974714606953446,0.0645297735023499,-0.0008306913500012447,1.1037082261121942,1677898542.452,0.9949515368240961,5533,1.1037082261121942,2
1677898542445,-0.0108840726315975,-0.062313973903656,0.0791696533560752,0.0487518310546875,-1.0662078857421875,-0.2883758544921875,-12.062612533569336,-11.692462921142578,-12.45720672607422,24.78797632039426,120.99885392248788,89.58635027892888,6.974714606953446,0.0645297735023499,-0.0008306913500012447,1.1037082261121942,1677898542.445,0.9949515368240961,5532,1.1037082261121942,2
1677898542379,-0.0108840726315975,-0.062313973903656,0.0791696533560752,0.0487518310546875,-1.0662078857421875,-0.2883758544921875,-12.274297714233398,-11.587379455566406,-12.299705505371094,24.78797632039426,120.99885392248788,89.58635027892888,6.974714606953446,0.0645297735023499,-0.0008306913500012447,1.1037082261121942,1677898542.379,0.9949515368240961,5531,1.1037082261121942,2
1677898542161,-0.2017581462860107,-0.0845295339822769,0.0236302278935909,-0.03411865234375,-0.733612060546875,-0.6588592529296875,-12.632164001464844,-11.941428184509276,-12.427074432373049,24.787933263016,120.99878385549,89.92294656485319,6.634843961692753,-0.021542587981131744,-0.44513170066864355,0.8802499298219613,1677898542.161,0.9949515368240961,5523,0.8802499298219613,2
1677898542156,-0.4125561416149139,0.3228731155395508,0.0158287640661001,-0.03411865234375,-0.733612060546875,-0.6588592529296875,-12.632164001464844,-11.941428184509276,-12.427074432373049,24.787933263016,120.99878385549,89.92294656485319,6.634843961692753,-0.021542587981131744,-0.44513170066864355,0.8802499298219613,1677898542.156,0.9949515368240961,5522,0.8802499298219613,2
1677898542069,-0.4125561416149139,0.3228731155395508,0.0158287640661001,-0.03411865234375,-0.733612060546875,-0.6588592529296875,-12.735403060913086,-11.929043769836426,-12.625648498535156,24.787933263016,120.99878385549,89.92294656485319,6.634843961692753,-0.021542587981131744,-0.44513170066864355,0.8802499298219613,1677898542.069,0.9949515368240961,5521,0.8802499298219613,2
1677898542064,-0.8607224822044373,-0.0538480505347251,-0.0581778176128864,-0.03411865234375,-0.733612060546875,-0.6588592529296875,-12.735403060913086,-11.929043769836426,-12.625648498535156,24.787933263016,120.99878385549,89.92294656485319,6.634843961692753,-0.021542587981131744,-0.44513170066864355,0.8802499298219613,1677898542.064,0.9949515368240961,5520,0.8802499298219613,2
1677898474995,0.0983750373125076,0.1323740184307098,0.0266164299100637,-0.0139923095703125,-0.8607025146484375,-0.2401123046875,21.3930721282959,-16.220870971679688,37.81550598144531,24.78789413648554,120.99525431284604,89.46104905102402,3.5504333957541867,-0.0012227965348385326,-0.007737369010973966,0.8936426356217683,1677898474.995,0.9984248164439979,3455,0.8936426356217683,2
1677898411774,0.0964764729142189,0.0327808484435081,0.0773073062300682,0.07916259765625,-0.8552093505859375,-0.243011474609375,51.92535018920898,-10.699541091918944,-15.336872100830078,24.78964243586787,120.99744723765124,87.67734754085541,6.656234896591597,0.09185759880302537,-0.01196675826087415,0.8877630907105777,1677898411.774,0.9937643201223948,1507,0.8877630907105777,2
1677898481551,0.0470950752496719,-0.0879879146814346,0.1169188991189003,0.128631591796875,-1.076171875,-0.2446746826171875,-14.463134765625,-14.119928359985352,15.020515441894531,24.787771118405157,120.99526032843436,90.23097782675175,3.427194677847832,0.1443762612642927,0.04395751909918705,1.1008092127889484,1677898481.551,0.9984248164439979,3657,1.1008092127889484,2
1677898411780,0.1173780262470245,-0.0490477047860622,0.1719872057437896,0.07916259765625,-0.8552093505859375,-0.243011474609375,51.92535018920898,-10.699541091918944,-15.336872100830078,24.78964243586787,120.99744723765124,87.67734754085541,6.656234896591597,0.09185759880302537,-0.01196675826087415,0.8877630907105777,1677898411.78,0.9937643201223948,1508,0.8877630907105777,2
1677898544774,0.2394322901964187,-0.302194744348526,0.1615297794342041,0.0186920166015625,-0.795013427734375,-0.3546905517578125,-8.245584487915039,-11.59634017944336,-13.860313415527344,24.788051884348384,120.99897674530784,88.7898432733491,7.386548461267891,0.030978185267251216,-0.13546685802403036,0.8595872333181198,1677898544.774,0.9901811318359145,5603,0.8595872333181198,2
1677898481443,0.2071774154901504,0.0710528716444969,0.0059862532652914,0.038299560546875,-0.8444366455078125,-0.1949615478515625,-14.656949996948242,-13.783084869384766,16.13450813293457,24.787771118405157,120.99526032843436,90.23097782675175,3.427194677847832,0.050671341416142386,0.031621188003941286,0.8654378229448699,1677898481.443,0.9984248164439979,3653,0.8654378229448699,2
1677898481354,0.2071774154901504,0.0710528716444969,0.0059862532652914,0.038299560546875,-0.8444366455078125,-0.1949615478515625,-13.959529876708984,-14.02051067352295,16.81063461303711,24.787771118405157,120.99526032843436,90.23097782675175,3.427194677847832,0.050671341416142386,0.031621188003941286,0.8654378229448699,1677898481.354,0.9984248164439979,3652,0.8654378229448699,2
1677898481349,0.1144445538520813,0.1752589046955108,0.0258739423006773,0.038299560546875,-0.8444366455078125,-0.1949615478515625,-13.959529876708984,-14.02051067352295,16.81063461303711,24.787771118405157,120.99526032843436,90.23097782675175,3.427194677847832,0.050671341416142386,0.031621188003941286,0.8654378229448699,1677898481.349,0.9984248164439979,3651,0.8654378229448699,2
1677898481144,-0.0607421770691871,0.0413900502026081,0.1678529232740402,0.1967620849609375,-1.0777587890625,-0.2391204833984375,-13.517627716064451,-15.084883689880373,17.6419677734375,24.78778902176489,120.99525223934867,90.09475050959736,3.001207659847916,0.2125010284619506,0.0497333320076809,1.0999217425118804,1677898481.144,0.9984248164439979,3643,1.0999217425118804,2
1677898481049,-0.0607421770691871,0.0413900502026081,0.1678529232740402,0.1967620849609375,-1.0777587890625,-0.2391204833984375,-13.247434616088867,-15.37041473388672,18.375246047973636,24.78778902176489,120.99525223934867,90.09475050959736,3.001207659847916,0.2125010284619506,0.0497333320076809,1.0999217425118804,1677898481.049,0.9984248164439979,3642,1.0999217425118804,2
1677898481043,-0.012966132722795,0.0882483720779419,0.0877413004636764,0.1967620849609375,-1.0777587890625,-0.2391204833984375,-13.247434616088867,-15.37041473388672,18.375246047973636,24.78778902176489,120.99525223934867,90.09475050959736,3.001207659847916,0.2125010284619506,0.0497333320076809,1.0999217425118804,1677898481.043,0.9984248164439979,3641,1.0999217425118804,2
1677898414588,-0.0415261387825012,0.0622372739017009,0.0754050090909004,0.0724334716796875,-1.0950469970703125,-0.304412841796875,53.74031448364258,-15.24953842163086,-7.984024047851562,24.78971819974437,120.99725469392556,87.18564053811133,6.342951994143863,0.08866654214273777,-0.008805989665650382,1.1353864587503186,1677898414.588,0.9937643201223948,1594,1.1353864587503186,2
1677898414494,-0.0415261387825012,0.0622372739017009,0.0754050090909004,0.0724334716796875,-1.0950469970703125,-0.304412841796875,52.98033905029297,-14.83401584625244,-7.8834228515625,24.78971819974437,120.99725469392556,87.18564053811133,6.342951994143863,0.08866654214273777,-0.008805989665650382,1.1353864587503186,1677898414.494,0.9937643201223948,1593,1.1353864587503186,2
1677898545986,0.1738120019435882,0.1057826206088066,0.03705495595932,0.137603759765625,-1.0741424560546875,-0.2537384033203125,-9.046527862548828,-9.500739097595217,-14.48151397705078,24.78809521782932,120.99904669234584,88.49362883437425,7.621160497296112,0.15335323490730432,0.03467801260908085,1.101081381508798,1677898545.986,0.9901811318359145,5641,1.101081381508798,2
1677898479531,-0.0809638276696205,0.1762924790382385,0.0991308465600013,0.103851318359375,-1.1158294677734375,-0.1699981689453125,-9.924074172973633,-16.767578125,27.17241096496582,24.787806066836268,120.9952526816832,90.0309005221352,2.688888062522111,0.11986783013388083,0.12638383926380636,1.1200083496979956,1677898479.531,0.9984248164439979,3595,1.1200083496979956,2
1677898479526,-0.2043155878782272,0.241541251540184,0.0692379251122474,0.103851318359375,-1.1158294677734375,-0.1699981689453125,-9.924074172973633,-16.767578125,27.17241096496582,24.787806066836268,120.9952526816832,90.0309005221352,2.688888062522111,0.11986783013388083,0.12638383926380636,1.1200083496979956,1677898479.526,0.9984248164439979,3594,1.1200083496979956,2
1677898479442,-0.2043155878782272,0.241541251540184,0.0692379251122474,0.103851318359375,-1.1158294677734375,-0.1699981689453125,-9.53237533569336,-16.920269012451172,28.24712562561035,24.787806066836268,120.9952526816832,90.0309005221352,2.688888062522111,0.11986783013388083,0.12638383926380636,1.1200083496979956,1677898479.442,0.9984248164439979,3593,1.1200083496979956,2
1677898545979,-0.1206063106656074,-0.1535312384366989,0.0958000272512435,0.137603759765625,-1.0741424560546875,-0.2537384033203125,-9.046527862548828,-9.500739097595217,-14.48151397705078,24.78809521782932,120.99904669234584,88.49362883437425,7.621160497296112,0.15335323490730432,0.03467801260908085,1.101081381508798,1677898545.979,0.9901811318359145,5640,1.101081381508798,2
1677898545895,-0.1206063106656074,-0.1535312384366989,0.0958000272512435,0.137603759765625,-1.0741424560546875,-0.2537384033203125,-9.170528411865234,-8.786362648010254,-13.63455581665039,24.78809521782932,120.99904669234584,88.49362883437425,7.621160497296112,0.15335323490730432,0.03467801260908085,1.101081381508798,1677898545.895,0.9901811318359145,5639,1.101081381508798,2
1677898518097,0.0397311672568321,-0.4171817898750305,0.0594686530530452,0.0438079833984375,-1.0601043701171875,-0.35821533203125,-14.230796813964844,-12.396245956420898,7.4964599609375,24.787412206656654,120.9974104925915,92.90677640400828,6.91099369128556,0.059762054691430255,-0.06985061066395631,1.1160681108526425,1677898518.097,1.013509334528787,4782,1.1160681108526425,2
1677898545175,-0.2001607865095138,0.3895062208175659,-0.1174624487757682,0.1225433349609375,-1.095703125,-0.2928924560546875,-8.238546371459961,-11.458876609802246,-13.991802215576172,24.78809521782932,120.99904669234584,88.49362883437425,7.621160497296112,0.13873748097402472,0.0024879024416780138,1.1323046938021075,1677898545.175,0.9901811318359145,5616,1.1323046938021075,2
1677898545174,-0.2001607865095138,0.3895062208175659,-0.1174624487757682,0.1225433349609375,-1.095703125,-0.2928924560546875,-8.238546371459961,-11.458876609802246,-13.991802215576172,24.788051884348384,120.99897674530784,88.7898432733491,7.386548461267891,0.13873748097402472,0.0024879024416780138,1.1323046938021075,1677898545.174,0.9901811318359145,5615,1.1323046938021075,2
1677898545082,-0.2001607865095138,0.3895062208175659,-0.1174624487757682,0.1225433349609375,-1.095703125,-0.2928924560546875,-8.005767822265625,-11.62983512878418,-14.020275115966797,24.788051884348384,120.99897674530784,88.7898432733491,7.386548461267891,0.13873748097402472,0.0024879024416780138,1.1323046938021075,1677898545.082,0.9901811318359145,5614,1.1323046938021075,2
1677898545078,-0.3925057351589203,0.0643246620893478,-0.0447360463440418,0.1225433349609375,-1.095703125,-0.2928924560546875,-8.005767822265625,-11.62983512878418,-14.020275115966797,24.788051884348384,120.99897674530784,88.7898432733491,7.386548461267891,0.13873748097402472,0.0024879024416780138,1.1323046938021075,1677898545.078,0.9901811318359145,5613,1.1323046938021075,2
1677898545072,-0.3925057351589203,0.0643246620893478,-0.0447360463440418,0.3283843994140625,-1.1629486083984375,-0.2508697509765625,-8.005767822265625,-11.62983512878418,-14.020275115966797,24.788051884348384,120.99897674530784,88.7898432733491,7.386548461267891,0.3453289462901668,0.06056942726534331,1.1833430081106284,1677898545.072,0.9901811318359145,5612,1.1833430081106284,2
1677898544992,-0.3925057351589203,0.0643246620893478,-0.0447360463440418,0.3283843994140625,-1.1629486083984375,-0.2508697509765625,-8.021173477172852,-11.915939331054688,-13.747062683105469,24.788051884348384,120.99897674530784,88.7898432733491,7.386548461267891,0.3453289462901668,0.06056942726534331,1.1833430081106284,1677898544.992,0.9901811318359145,5611,1.1833430081106284,2
1677898544681,0.2394322901964187,-0.302194744348526,0.1615297794342041,0.0186920166015625,-0.795013427734375,-0.3546905517578125,-8.440853118896484,-11.739618301391602,-13.844623565673828,24.788051884348384,120.99897674530784,88.7898432733491,7.386548461267891,0.030978185267251216,-0.13546685802403036,0.8595872333181198,1677898544.681,0.9901811318359145,5602,0.8595872333181198,2
1677898523944,0.1682766228914261,0.338657408952713,-0.0262228157371282,0.0708465576171875,-0.83355712890625,-0.1000823974609375,-13.935237884521484,-12.043416976928713,-1.299541473388672,24.78740942048532,120.99762669900151,93.1883857762441,5.327595267732176,0.08271192533592243,0.12039546548688894,0.829769171188943,1677898523.944,0.9949515368240961,4963,0.829769171188943,2
1677898495740,0.2883846461772918,-0.0219375230371952,-0.0337702147662639,-0.07879638671875,-0.8196258544921875,-0.1874542236328125,-15.395246505737305,-12.66655731201172,12.518417358398438,24.78765294211158,120.99606234001446,91.93058319482952,4.484388429420518,-0.0667828853513993,0.03240982023040334,0.8412039869416541,1677898495.74,0.9897052989152569,4093,0.8412039869416541,2
1677898510048,0.0885325297713279,0.0014937670202925,0.00173478317447,-0.009521484375,-0.858123779296875,-0.2410430908203125,-26.92388916015625,-27.57135391235352,-3.494873046875,24.787541969741124,120.99679206601658,93.12263577338308,2.9387353523031683,0.0032154573279831993,-0.009307456741691783,0.891331522484669,1677898510.048,1.013509334528787,4534,0.891331522484669,2
1677898511344,-0.1812092065811157,0.3250084519386291,-0.1751952469348907,0.1768035888671875,-1.0411224365234375,-0.55340576171875,-15.197809219360352,-4.038229942321777,3.096263885498047,24.78752392386144,120.99688203163466,93.1517676692456,3.550773062108157,0.19320838471944046,-0.26325132424306463,1.1466571564032138,1677898511.344,1.013509334528787,4575,1.1466571564032138,2
1677898511339,-0.0357731766998767,-0.0100715421140193,0.0921666771173477,0.1768035888671875,-1.0411224365234375,-0.55340576171875,-15.197809219360352,-4.038229942321777,3.096263885498047,24.78752392386144,120.99688203163466,93.1517676692456,3.550773062108157,0.19320838471944046,-0.26325132424306463,1.1466571564032138,1677898511.339,1.013509334528787,4574,1.1466571564032138,2
1677898511257,-0.0357731766998767,-0.0100715421140193,0.0921666771173477,0.1768035888671875,-1.0411224365234375,-0.55340576171875,-15.885639190673828,1.8237342834472656,6.730766296386719,24.78752392386144,120.99688203163466,93.1517676692456,3.550773062108157,0.19320838471944046,-0.26325132424306463,1.1466571564032138,1677898511.257,1.013509334528787,4573,1.1466571564032138,2
1677898500778,-0.2126403599977493,0.2211433053016662,-0.219889760017395,-0.2537078857421875,-0.7519989013671875,-0.4523162841796875,-12.06833267211914,-14.565402030944824,22.43506622314453,24.787630959030498,120.9963191922922,92.682371487841,4.53128813133825,-0.24162415122655356,-0.24092492247171476,0.8473682854316614,1677898500.778,0.9897052989152569,4250,0.8473682854316614,2
1677898500876,-0.2126403599977493,0.2211433053016662,-0.219889760017395,-0.2537078857421875,-0.7519989013671875,-0.4523162841796875,-11.806573867797852,-14.576804161071776,22.008848190307617,24.787630959030498,120.9963191922922,92.682371487841,4.53128813133825,-0.24162415122655356,-0.24092492247171476,0.8473682854316614,1677898500.876,0.9897052989152569,4251,0.8473682854316614,2
1677898500881,-0.2126403599977493,0.2211433053016662,-0.219889760017395,-0.063812255859375,-1.0649871826171875,-0.2876739501953125,-11.806573867797852,-14.576804161071776,22.008848190307617,24.787630959030498,120.9963191922922,92.682371487841,4.53128813133825,-0.04804227365480073,-0.00047081891249989294,1.1039554896051567,1677898500.881,0.9897052989152569,4252,1.1039554896051567,2
1677898511046,-0.0611296668648719,-0.3053420782089233,0.2654013037681579,0.0375823974609375,-0.844635009765625,-0.2375030517578125,-14.240116119384766,1.5117864608764648,27.01935768127441,24.78753300588026,120.99683085232073,93.23482091352344,3.1136256271746285,0.050115260351914485,-0.009401464909102347,0.8767146109495303,1677898511.046,1.013509334528787,4564,0.8767146109495303,2
1677898510953,-0.0611296668648719,-0.3053420782089233,0.2654013037681579,0.0375823974609375,-0.844635009765625,-0.2375030517578125,-15.210878372192385,-4.316025257110596,29.40943145751953,24.78753300588026,120.99683085232073,93.23482091352344,3.1136256271746285,0.050115260351914485,-0.009401464909102347,0.8767146109495303,1677898510.953,1.013509334528787,4563,0.8767146109495303,2
1677898511351,-0.1812092065811157,0.3250084519386291,-0.1751952469348907,0.2300262451171875,-1.1514129638671875,-0.26165771484375,-15.197809219360352,-4.038229942321777,3.096263885498047,24.78752392386144,120.99688203163466,93.1517676692456,3.550773062108157,0.24686181731081214,0.047150089973182374,1.1764203154956612,1677898511.351,1.013509334528787,4576,1.1764203154956612,2
1677898510947,-0.0611296668648719,-0.3053420782089233,0.2654013037681579,-0.0508880615234375,-0.9004364013671875,-0.0923614501953125,-15.210878372192385,-4.316025257110596,29.40943145751953,24.78753300588026,120.99683085232073,93.23482091352344,3.1136256271746285,-0.03811628347706321,0.14526291108070494,0.8940647520136003,1677898510.947,1.013509334528787,4562,0.8940647520136003,2
1677898510843,0.0318788364529609,-0.1908285468816757,0.1277526319026947,-0.0508880615234375,-0.9004364013671875,-0.0923614501953125,-16.57823371887207,-9.486128807067873,29.254024505615234,24.78753300588026,120.99683085232073,93.23482091352344,3.1136256271746285,-0.03811628347706321,0.14526291108070494,0.8940647520136003,1677898510.843,1.013509334528787,4560,0.8940647520136003,2
1677898500888,0.0320671238005161,-0.3548100292682647,0.1320326030254364,-0.063812255859375,-1.0649871826171875,-0.2876739501953125,-11.806573867797852,-14.576804161071776,22.008848190307617,24.787630959030498,120.9963191922922,92.682371487841,4.53128813133825,-0.04804227365480073,-0.00047081891249989294,1.1039554896051567,1677898500.888,0.9897052989152569,4253,1.1039554896051567,2
1677898510040,0.1798944026231765,0.0313597880303859,0.0729572996497154,-0.009521484375,-0.858123779296875,-0.2410430908203125,-26.92388916015625,-27.57135391235352,-3.494873046875,24.787541969741124,120.99679206601658,93.12263577338308,2.9387353523031683,0.0032154573279831993,-0.009307456741691783,0.891331522484669,1677898510.04,1.013509334528787,4533,0.891331522484669,2
1677898509937,0.1798944026231765,0.0313597880303859,0.0729572996497154,-0.009521484375,-0.858123779296875,-0.2410430908203125,-26.01360321044922,-22.9279899597168,-2.532745361328125,24.787541969741124,120.99679206601658,93.12263577338308,2.9387353523031683,0.0032154573279831993,-0.009307456741691783,0.891331522484669,1677898509.937,1.013509334528787,4532,0.891331522484669,2
1677898500973,0.0320671238005161,-0.3548100292682647,0.1320326030254364,-0.063812255859375,-1.0649871826171875,-0.2876739501953125,-12.154827117919922,-14.579580307006836,21.372802734375,24.787630959030498,120.9963191922922,92.682371487841,4.53128813133825,-0.04804227365480073,-0.00047081891249989294,1.1039554896051567,1677898500.973,0.9897052989152569,4254,1.1039554896051567,2
1677898500980,0.0132905049249529,-0.237002432346344,0.1552628278732299,-0.063812255859375,-1.0649871826171875,-0.2876739501953125,-12.154827117919922,-14.579580307006836,21.372802734375,24.787630959030498,120.9963191922922,92.682371487841,4.53128813133825,-0.04804227365480073,-0.00047081891249989294,1.1039554896051567,1677898500.98,0.9897052989152569,4255,1.1039554896051567,2
1677898501278,0.2548376023769378,0.1494358330965042,-0.0222360640764236,-0.066375732421875,-0.852447509765625,-0.2179718017578125,-12.005714416503906,-14.304117202758787,20.7856559753418,24.78762355809984,120.99638055122848,92.60009691584855,4.722422500715068,-0.05379713393675885,0.011490249929811847,0.8806577335483086,1677898501.278,0.9897052989152569,4266,0.8806577335483086,2
1677898375819,-0.0535625591874122,0.0360365621745586,-0.0323616676032543,0.0374603271484375,-1.0883026123046875,-0.1843414306640625,48.88225173950195,-14.024149894714355,-15.541374206542969,24.78874264126529,120.99911528428282,85.28567847516388,4.252834439466381,0.053157203290956634,0.10536832713286468,1.0981163155577163,1677898375.819,0.9985075137883701,401,1.0981163155577163,2
1677898510941,0.0318788364529609,-0.1908285468816757,0.1277526319026947,-0.0508880615234375,-0.9004364013671875,-0.0923614501953125,-15.210878372192385,-4.316025257110596,29.40943145751953,24.78753300588026,120.99683085232073,93.23482091352344,3.1136256271746285,-0.03811628347706321,0.14526291108070494,0.8940647520136003,1677898510.941,1.013509334528787,4561,0.8940647520136003,2
1677898375810,-0.1152232587337493,0.0854413956403732,-0.0330546237528324,0.0374603271484375,-1.0883026123046875,-0.1843414306640625,48.88225173950195,-14.024149894714355,-15.541374206542969,24.78874264126529,120.99911528428282,85.28567847516388,4.252834439466381,0.053157203290956634,0.10536832713286468,1.0981163155577163,1677898375.81,0.9985075137883701,400,1.0981163155577163,2
1677898511448,-0.1812092065811157,0.3250084519386291,-0.1751952469348907,0.2300262451171875,-1.1514129638671875,-0.26165771484375,-15.180198669433594,-8.172881126403809,3.4777870178222656,24.78752392386144,120.99688203163466,93.1517676692456,3.550773062108157,0.24686181731081214,0.047150089973182374,1.1764203154956612,1677898511.448,1.013509334528787,4577,1.1764203154956612,2
1677898511850,-0.3011958003044128,-0.0282398927956819,0.0817747563123703,0.02056884765625,-1.0677947998046875,-0.3724517822265625,-16.148235321044922,-13.17599391937256,7.824275970458984,24.78752392386144,120.99688203163466,93.1517676692456,3.550773062108157,0.036684358915374894,-0.08159377162636,1.1275308671208673,1677898511.85,1.013509334528787,4591,1.1275308671208673,2
1677898501484,-0.0324775166809558,-0.0713263750076294,-0.0608971714973449,0.0504608154296875,-0.8147125244140625,-0.3842315673828125,-11.704484939575195,-14.60417366027832,20.82547378540039,24.78762355809984,120.99638055122848,92.60009691584855,4.722422500715068,0.06312542589659237,-0.1588601546633755,0.8858415888690926,1677898501.484,0.9897052989152569,4271,0.8858415888690926,2
1677898500669,-0.2396416217088699,0.0027779433876276,-0.0355526693165302,-0.02874755859375,-1.090728759765625,-0.22174072265625,-12.408697128295898,-14.78828239440918,22.439388275146484,24.787630959030498,120.9963191922922,92.682371487841,4.53128813133825,-0.012871309222653083,0.0698905663823215,1.1111409612280203,1677898500.669,0.9897052989152569,4245,1.1111409612280203,2
1677898380352,-0.0476415529847145,0.0250054839998483,-0.0494317300617694,0.057098388671875,-0.8881683349609375,-0.077850341796875,48.10176467895508,-13.754552841186523,-14.859748840332031,24.78872492854921,120.9988691102885,86.38163129985332,5.411040018096943,0.06963589647591234,0.15607941748403487,0.8769001940323307,1677898380.352,0.9985075137883701,540,0.8769001940323307,2
1677898380258,-0.0476415529847145,0.0250054839998483,-0.0494317300617694,0.057098388671875,-0.8881683349609375,-0.077850341796875,47.95861053466797,-13.56542682647705,-14.342048645019531,24.78872492854921,120.9988691102885,86.38163129985332,5.411040018096943,0.06963589647591234,0.15607941748403487,0.8769001940323307,1677898380.258,0.9985075137883701,539,0.8769001940323307,2
1677898513179,-0.3891110122203827,0.2382666319608688,-0.1506518274545669,0.0052337646484375,-0.8425140380859375,-0.130523681640625,-18.78453826904297,-10.329776763916016,12.079822540283203,24.78748986898811,120.99694962286196,93.05583062209188,4.542954414880542,0.017342660458246298,0.0933360979388333,0.8472787812066779,1677898513.179,1.013509334528787,4630,0.8472787812066779,2
1677898513163,-0.1533778309822082,-0.2082810401916504,0.1230116784572601,0.0052337646484375,-0.8425140380859375,-0.130523681640625,-18.78453826904297,-10.329776763916016,12.079822540283203,24.78748986898811,120.99694962286196,93.05583062209188,4.542954414880542,0.017342660458246298,0.0933360979388333,0.8472787812066779,1677898513.163,1.013509334528787,4629,0.8472787812066779,2
1677898513066,-0.1533778309822082,-0.2082810401916504,0.1230116784572601,0.0052337646484375,-0.8425140380859375,-0.130523681640625,-18.088455200195312,-10.888389587402344,12.114582061767578,24.78748986898811,120.99694962286196,93.05583062209188,4.542954414880542,0.017342660458246298,0.0933360979388333,0.8472787812066779,1677898513.066,1.013509334528787,4628,0.8472787812066779,2
1677898513060,0.2240240424871444,-0.1832593083381652,0.0579091049730777,0.0052337646484375,-0.8425140380859375,-0.130523681640625,-18.088455200195312,-10.888389587402344,12.114582061767578,24.78748986898811,120.99694962286196,93.05583062209188,4.542954414880542,0.017342660458246298,0.0933360979388333,0.8472787812066779,1677898513.06,1.013509334528787,4627,0.8472787812066779,2
1677898511455,0.0531140826642513,0.1725099831819534,-0.0079146483913064,0.2300262451171875,-1.1514129638671875,-0.26165771484375,-15.180198669433594,-8.172881126403809,3.4777870178222656,24.78752392386144,120.99688203163466,93.1517676692456,3.550773062108157,0.24686181731081214,0.047150089973182374,1.1764203154956612,1677898511.455,1.013509334528787,4578,1.1764203154956612,2
1677898512864,0.1187314465641975,-0.2341496497392654,0.0329273231327533,-0.0250091552734375,-0.86724853515625,-0.1877899169921875,-17.60565757751465,-13.25246238708496,10.319473266601562,24.78748986898811,120.99694962286196,93.05583062209188,4.542954414880542,-0.012342865606616233,0.044484814737721395,0.8864983290612863,1677898512.864,1.013509334528787,4621,0.8864983290612863,2
1677898512755,0.3269741237163543,-0.3820328414440155,0.1387935727834701,-0.0250091552734375,-0.86724853515625,-0.1877899169921875,-17.830190658569336,-13.32679843902588,9.254432678222656,24.78748986898811,120.99694962286196,93.05583062209188,4.542954414880542,-0.012342865606616233,0.044484814737721395,0.8864983290612863,1677898512.755,1.013509334528787,4619,0.8864983290612863,2
1677898500686,0.1672302633523941,0.6258686780929565,0.0468228980898857,-0.02874755859375,-1.090728759765625,-0.22174072265625,-12.408697128295898,-14.78828239440918,22.439388275146484,24.787630959030498,120.9963191922922,92.682371487841,4.53128813133825,-0.012871309222653083,0.0698905663823215,1.1111409612280203,1677898500.686,0.9897052989152569,4246,1.1111409612280203,2
1677898512462,0.1040411815047264,0.114517793059349,-0.0569975040853023,-0.173004150390625,-0.9054107666015624,-0.04376220703125,-18.801292419433597,-12.555967330932615,10.502498626708984,24.78748986898811,120.99694962286196,93.05583062209188,4.542954414880542,-0.16033208444307903,0.19348115856578896,0.8879599580346145,1677898512.462,1.013509334528787,4609,0.8879599580346145,2
1677898512454,-0.1708052903413772,0.1711919903755188,-0.0797560811042785,-0.173004150390625,-0.9054107666015624,-0.04376220703125,-18.801292419433597,-12.555967330932615,10.502498626708984,24.78748986898811,120.99694962286196,93.05583062209188,4.542954414880542,-0.16033208444307903,0.19348115856578896,0.8879599580346145,1677898512.454,1.013509334528787,4608,0.8879599580346145,2
1677898512369,-0.1708052903413772,0.1711919903755188,-0.0797560811042785,-0.173004150390625,-0.9054107666015624,-0.04376220703125,-18.19604110717773,-13.037349700927734,10.479293823242188,24.78748986898811,120.99694962286196,93.05583062209188,4.542954414880542,-0.16033208444307903,0.19348115856578896,0.8879599580346145,1677898512.369,1.013509334528787,4607,0.8879599580346145,2
1677898512363,-0.0279637239873409,0.3111424446105957,-0.1611614525318145,-0.173004150390625,-0.9054107666015624,-0.04376220703125,-18.19604110717773,-13.037349700927734,10.479293823242188,24.78748986898811,120.99694962286196,93.05583062209188,4.542954414880542,-0.16033208444307903,0.19348115856578896,0.8879599580346145,1677898512.363,1.013509334528787,4606,0.8879599580346145,2
1677898511958,-0.1132461279630661,-0.0329038873314857,0.0644000247120857,0.02056884765625,-1.0677947998046875,-0.3724517822265625,-16.426137924194336,-13.27634620666504,8.172882080078125,24.78752392386144,120.99688203163466,93.1517676692456,3.550773062108157,0.036684358915374894,-0.08159377162636,1.1275308671208673,1677898511.958,1.013509334528787,4593,1.1275308671208673,2
1677898511951,-0.3011958003044128,-0.0282398927956819,0.0817747563123703,0.02056884765625,-1.0677947998046875,-0.3724517822265625,-16.426137924194336,-13.27634620666504,8.172882080078125,24.78752392386144,120.99688203163466,93.1517676692456,3.550773062108157,0.036684358915374894,-0.08159377162636,1.1275308671208673,1677898511.951,1.013509334528787,4592,1.1275308671208673,2
1677898512856,0.3269741237163543,-0.3820328414440155,0.1387935727834701,-0.0250091552734375,-0.86724853515625,-0.1877899169921875,-17.60565757751465,-13.25246238708496,10.319473266601562,24.78748986898811,120.99694962286196,93.05583062209188,4.542954414880542,-0.012342865606616233,0.044484814737721395,0.8864983290612863,1677898512.856,1.013509334528787,4620,0.8864983290612863,2
1677898375747,-0.1152232587337493,0.0854413956403732,-0.0330546237528324,0.0374603271484375,-1.0883026123046875,-0.1843414306640625,48.951316833496094,-14.384137153625488,-14.777225494384766,24.78874264126529,120.99911528428282,85.28567847516388,4.252834439466381,0.053157203290956634,0.10536832713286468,1.0981163155577163,1677898375.747,0.9985075137883701,399,1.0981163155577163,2
1677898375730,-0.0852251499891281,0.1211431995034217,-0.0996608138084411,0.0374603271484375,-1.0883026123046875,-0.1843414306640625,48.951316833496094,-14.384137153625488,-14.777225494384766,24.78874264126529,120.99911528428282,85.28567847516388,4.252834439466381,0.053157203290956634,0.10536832713286468,1.0981163155577163,1677898375.73,0.9985075137883701,398,1.0981163155577163,2
1677898375527,-0.2260048985481262,0.0972770154476165,-0.0530709400773048,-0.0043792724609375,-1.140106201171875,-0.111358642578125,48.96366882324219,-16.534481048583984,-15.417613983154297,24.78874264126529,120.99911528428282,85.28567847516388,4.252834439466381,0.011765062522666224,0.189321685401545,1.1297260544022385,1677898375.527,0.9985075137883701,392,1.1297260544022385,2
1677898505304,-0.0951914936304092,-0.0425277538597583,-0.1164903938770294,-0.0978240966796875,-1.115020751953125,-0.358795166015625,-15.623006820678713,-13.917824745178224,21.189640045166016,24.78758416975575,120.99662204464286,92.8339934013784,4.920380803761455,-0.08109574839577106,-0.05611233805295268,1.1712598718661242,1677898505.304,1.013509334528787,4388,1.1712598718661242,2
1677898505205,-0.0951914936304092,-0.0425277538597583,-0.1164903938770294,-0.0978240966796875,-1.115020751953125,-0.358795166015625,-15.506343841552734,-13.483050346374512,21.192249298095703,24.78758416975575,120.99662204464286,92.8339934013784,4.920380803761455,-0.08109574839577106,-0.05611233805295268,1.1712598718661242,1677898505.205,1.013509334528787,4387,1.1712598718661242,2
1677898505198,-0.0110760871320962,0.1079847887158393,-0.0087863011285662,-0.0978240966796875,-1.115020751953125,-0.358795166015625,-15.506343841552734,-13.483050346374512,21.192249298095703,24.78758416975575,120.99662204464286,92.8339934013784,4.920380803761455,-0.08109574839577106,-0.05611233805295268,1.1712598718661242,1677898505.198,1.013509334528787,4386,1.1712598718661242,2
1677898436733,-0.0553476773202419,-0.065620020031929,0.0758681297302246,-0.025665283203125,-1.10772705078125,-0.2482757568359375,48.107215881347656,-14.723652839660645,-14.174690246582031,24.789532780994616,120.9959479739487,87.76110064424574,6.095883917525308,-0.009456108594596821,0.048696392874163524,1.1344152769414613,1677898436.733,1.0048485009208001,2277,1.1344152769414613,2
1677898436724,-0.1396987736225128,0.0284641310572624,0.049496978521347,-0.025665283203125,-1.10772705078125,-0.2482757568359375,48.107215881347656,-14.723652839660645,-14.174690246582031,24.789532780994616,120.9959479739487,87.76110064424574,6.095883917525308,-0.009456108594596821,0.048696392874163524,1.1344152769414613,1677898436.724,1.0048485009208001,2276,1.1344152769414613,2
1677898436660,-0.1396987736225128,0.0284641310572624,0.049496978521347,-0.025665283203125,-1.10772705078125,-0.2482757568359375,48.14412689208984,-14.621121406555176,-13.812885284423828,24.789532780994616,120.9959479739487,87.76110064424574,6.095883917525308,-0.009456108594596821,0.048696392874163524,1.1344152769414613,1677898436.66,1.0048485009208001,2275,1.1344152769414613,2
1677898436647,-0.0882305279374122,0.0429629124701023,-0.0254931095987558,-0.025665283203125,-1.10772705078125,-0.2482757568359375,48.14412689208984,-14.621121406555176,-13.812885284423828,24.789532780994616,120.9959479739487,87.76110064424574,6.095883917525308,-0.009456108594596821,0.048696392874163524,1.1344152769414613,1677898436.647,1.0048485009208001,2274,1.1344152769414613,2
1677898502293,0.0888411924242973,-0.1092652380466461,0.0044687842018902,-0.0660552978515625,-0.885894775390625,-0.143310546875,-12.57716941833496,-13.995088577270508,18.9132080078125,24.787614627552383,120.99644855921716,92.70032171625644,5.00608286721679,-0.053293044438254465,0.09228490777824266,0.8935066398718812,1677898502.293,0.9897052989152569,4296,0.8935066398718812,2
1677898505412,0.1606919467449188,-0.3016325533390045,0.1230801194906234,0.119537353515625,-0.817779541015625,-0.2708282470703125,-16.314414978027344,-13.038259506225586,21.91493797302246,24.78758416975575,120.99662204464286,92.8339934013784,4.920380803761455,0.13181531832156212,-0.048569443674060936,0.8582926231754539,1677898505.412,1.013509334528787,4392,0.8582926231754539,2
1677898502286,0.2195376753807068,0.1953098475933075,-0.0390280932188034,-0.0660552978515625,-0.885894775390625,-0.143310546875,-12.57716941833496,-13.995088577270508,18.9132080078125,24.787614627552383,120.99644855921716,92.70032171625644,5.00608286721679,-0.053293044438254465,0.09228490777824266,0.8935066398718812,1677898502.286,0.9897052989152569,4295,0.8935066398718812,2
1677898502188,0.2195376753807068,0.1953098475933075,-0.0390280932188034,-0.0660552978515625,-0.885894775390625,-0.143310546875,-13.188116073608398,-13.674304962158203,19.317533493041992,24.78762355809984,120.99638055122848,92.60009691584855,4.722422500715068,-0.053293044438254465,0.09228490777824266,0.8935066398718812,1677898502.188,0.9897052989152569,4293,0.8935066398718812,2
1677898502185,0.231772243976593,-0.0859319493174552,0.0545769594609737,-0.0660552978515625,-0.885894775390625,-0.143310546875,-13.188116073608398,-13.674304962158203,19.317533493041992,24.78762355809984,120.99638055122848,92.60009691584855,4.722422500715068,-0.053293044438254465,0.09228490777824266,0.8935066398718812,1677898502.185,0.9897052989152569,4292,0.8935066398718812,2
1677898501981,-0.009884588420391,-0.1203413233160972,0.1436719447374344,0.0737152099609375,-1.056121826171875,-0.3089599609375,-12.991479873657228,-13.649772644042969,20.573352813720703,24.78762355809984,120.99638055122848,92.60009691584855,4.722422500715068,0.08942803177552353,-0.023330898166879332,1.0989730650394418,1677898501.981,0.9897052989152569,4285,1.0989730650394418,2
1677898435531,-0.1383943557739257,-0.0762873142957687,0.0308279544115066,-0.0007476806640625,-1.087677001953125,-0.27783203125,50.90254211425781,-14.965117454528809,-14.288814544677734,24.78953171323512,120.9960411039339,87.79039063863456,5.850582512642943,0.015292289013915904,0.014939218524121056,1.1223971769561871,1677898435.531,1.0048485009208001,2239,1.1223971769561871,2
1677898435441,-0.1383943557739257,-0.0762873142957687,0.0308279544115066,-0.0007476806640625,-1.087677001953125,-0.27783203125,50.983680725097656,-14.76199722290039,-13.747093200683594,24.78953171323512,120.9960411039339,87.79039063863456,5.850582512642943,0.015292289013915904,0.014939218524121056,1.1223971769561871,1677898435.441,1.0048485009208001,2238,1.1223971769561871,2
1677898435436,0.0211420375853776,-0.1222172528505325,0.0290244612842798,-0.0007476806640625,-1.087677001953125,-0.27783203125,50.983680725097656,-14.76199722290039,-13.747093200683594,24.78953171323512,120.9960411039339,87.79039063863456,5.850582512642943,0.015292289013915904,0.014939218524121056,1.1223971769561871,1677898435.436,1.0048485009208001,2237,1.1223971769561871,2
1677898501891,-0.009884588420391,-0.1203413233160972,0.1436719447374344,0.0737152099609375,-1.056121826171875,-0.3089599609375,-12.946233749389648,-13.721580505371094,21.279088973999023,24.78762355809984,120.99638055122848,92.60009691584855,4.722422500715068,0.08942803177552353,-0.023330898166879332,1.0989730650394418,1677898501.891,0.9897052989152569,4284,1.0989730650394418,2
1677898501885,-0.0930391326546669,-0.2696117758750915,0.0520200580358505,0.0737152099609375,-1.056121826171875,-0.3089599609375,-12.946233749389648,-13.721580505371094,21.279088973999023,24.78762355809984,120.99638055122848,92.60009691584855,4.722422500715068,0.08942803177552353,-0.023330898166879332,1.0989730650394418,1677898501.885,0.9897052989152569,4283,1.0989730650394418,2
1677898502189,0.2195376753807068,0.1953098475933075,-0.0390280932188034,-0.0660552978515625,-0.885894775390625,-0.143310546875,-13.188116073608398,-13.674304962158203,19.317533493041992,24.787614627552383,120.99644855921716,92.70032171625644,5.00608286721679,-0.053293044438254465,0.09228490777824266,0.8935066398718812,1677898502.189,0.9897052989152569,4294,0.8935066398718812,2
1677898501393,0.1856976896524429,-0.2479874342679977,0.0322058722376823,0.0504608154296875,-0.8147125244140625,-0.3842315673828125,-12.016883850097656,-14.483531951904297,20.868934631347656,24.78762355809984,120.99638055122848,92.60009691584855,4.722422500715068,0.06312542589659237,-0.1588601546633755,0.8858415888690926,1677898501.393,0.9897052989152569,4269,0.8858415888690926,2
1677898501387,0.2548376023769378,0.1494358330965042,-0.0222360640764236,0.0504608154296875,-0.8147125244140625,-0.3842315673828125,-12.016883850097656,-14.483531951904297,20.868934631347656,24.78762355809984,120.99638055122848,92.60009691584855,4.722422500715068,0.06312542589659237,-0.1588601546633755,0.8858415888690926,1677898501.387,0.9897052989152569,4268,0.8858415888690926,2
1677898501380,0.2548376023769378,0.1494358330965042,-0.0222360640764236,-0.066375732421875,-0.852447509765625,-0.2179718017578125,-12.016883850097656,-14.483531951904297,20.868934631347656,24.78762355809984,120.99638055122848,92.60009691584855,4.722422500715068,-0.05379713393675885,0.011490249929811847,0.8806577335483086,1677898501.38,0.9897052989152569,4267,0.8806577335483086,2
1677898375522,-0.3592982590198517,0.0403532832860946,-0.0164554063230752,-0.0043792724609375,-1.140106201171875,-0.111358642578125,48.96366882324219,-16.534481048583984,-15.417613983154297,24.78874264126529,120.99911528428282,85.28567847516388,4.252834439466381,0.011765062522666224,0.189321685401545,1.1297260544022385,1677898375.522,0.9985075137883701,391,1.1297260544022385,2
1677898375433,-0.3592982590198517,0.0403532832860946,-0.0164554063230752,-0.0043792724609375,-1.140106201171875,-0.111358642578125,48.85078048706055,-16.194873809814453,-16.82259750366211,24.78874264126529,120.99911528428282,85.28567847516388,4.252834439466381,0.011765062522666224,0.189321685401545,1.1297260544022385,1677898375.433,0.9985075137883701,390,1.1297260544022385,2
1677898507010,-0.0027947211638092,0.0396041348576545,0.0215649474412202,0.02313232421875,-0.87738037109375,-0.1600494384765625,-17.488616943359375,-13.54745864868164,21.966588973999023,24.7875742405061,120.99665655001444,92.89401281718165,3.9987058927516688,0.035830277468546036,0.07390649748127118,0.8883700037752337,1677898507.01,1.013509334528787,4441,0.8883700037752337,2
1677898507004,0.1323551088571548,0.0053431000560522,-0.0206418950110673,0.02313232421875,-0.87738037109375,-0.1600494384765625,-17.488616943359375,-13.54745864868164,21.966588973999023,24.7875742405061,120.99665655001444,92.89401281718165,3.9987058927516688,0.035830277468546036,0.07390649748127118,0.8883700037752337,1677898507.004,1.013509334528787,4440,0.8883700037752337,2
1677898506939,0.1323551088571548,0.0053431000560522,-0.0206418950110673,0.02313232421875,-0.87738037109375,-0.1600494384765625,-17.623363494873047,-13.623024940490724,21.16383171081543,24.7875742405061,120.99665655001444,92.89401281718165,3.9987058927516688,0.035830277468546036,0.07390649748127118,0.8883700037752337,1677898506.939,1.013509334528787,4439,0.8883700037752337,2
1677898506614,-0.1885259747505188,0.0884076282382011,0.026602316647768,0.01910400390625,-1.12872314453125,-0.2738189697265625,-17.641036987304688,-13.663928985595703,20.78106117248535,24.7875742405061,120.99665655001444,92.89401281718165,3.9987058927516688,0.03569331364155598,0.029500707666949955,1.1606952329342592,1677898506.614,1.013509334528787,4428,1.1606952329342592,2
1677898506512,-0.1885259747505188,0.0884076282382011,0.026602316647768,0.01910400390625,-1.12872314453125,-0.2738189697265625,-17.702594757080078,-13.426752090454102,20.67193031311035,24.7875742405061,120.99665655001444,92.89401281718165,3.9987058927516688,0.03569331364155598,0.029500707666949955,1.1606952329342592,1677898506.512,1.013509334528787,4427,1.1606952329342592,2
1677898506306,-0.315416544675827,0.1866015642881393,0.0002673813723959,-0.0437774658203125,-1.096832275390625,-0.3245086669921875,-16.382604598999023,-13.63465690612793,19.555072784423828,24.7875742405061,120.99665655001444,92.89401281718165,3.9987058927516688,-0.027433134757207215,-0.02774391670533266,1.1440022202812858,1677898506.306,1.013509334528787,4419,1.1440022202812858,2
1677898506210,-0.315416544675827,0.1866015642881393,0.0002673813723959,-0.0437774658203125,-1.096832275390625,-0.3245086669921875,-16.216503143310547,-13.213013648986816,18.91650390625,24.7875742405061,120.99665655001444,92.89401281718165,3.9987058927516688,-0.027433134757207215,-0.02774391670533266,1.1440022202812858,1677898506.21,1.013509334528787,4418,1.1440022202812858,2
1677898506204,-0.0141483098268508,0.051275972276926,0.0235641822218894,-0.0437774658203125,-1.096832275390625,-0.3245086669921875,-16.216503143310547,-13.213013648986816,18.91650390625,24.7875742405061,120.99665655001444,92.89401281718165,3.9987058927516688,-0.027433134757207215,-0.02774391670533266,1.1440022202812858,1677898506.204,1.013509334528787,4417,1.1440022202812858,2
1677898505917,0.0227553788572549,0.4078151881694793,-0.1919199079275131,0.0968780517578125,-1.0302581787109375,-0.559112548828125,-16.022554397583008,-10.578447341918944,17.769418716430664,24.78758416975575,120.99662204464286,92.8339934013784,4.920380803761455,0.11316234974233108,-0.2715899251470238,1.1387964300653906,1677898505.917,1.013509334528787,4407,1.1387964300653906,2
1677898505910,-0.2099502980709076,0.1985479742288589,-0.0889197513461113,0.0968780517578125,-1.0302581787109375,-0.559112548828125,-16.022554397583008,-10.578447341918944,17.769418716430664,24.78758416975575,120.99662204464286,92.8339934013784,4.920380803761455,0.11316234974233108,-0.2715899251470238,1.1387964300653906,1677898505.91,1.013509334528787,4406,1.1387964300653906,2
1677898505819,-0.2099502980709076,0.1985479742288589,-0.0889197513461113,0.0968780517578125,-1.0302581787109375,-0.559112548828125,-17.027402877807617,-9.59988021850586,19.49315071105957,24.78758416975575,120.99662204464286,92.8339934013784,4.920380803761455,0.11316234974233108,-0.2715899251470238,1.1387964300653906,1677898505.819,1.013509334528787,4405,1.1387964300653906,2
1677898505813,-0.1504904329776764,0.0259455796331167,0.0998027622699737,0.0968780517578125,-1.0302581787109375,-0.559112548828125,-17.027402877807617,-9.59988021850586,19.49315071105957,24.78758416975575,120.99662204464286,92.8339934013784,4.920380803761455,0.11316234974233108,-0.2715899251470238,1.1387964300653906,1677898505.813,1.013509334528787,4404,1.1387964300653906,2
1677898505806,-0.1504904329776764,0.0259455796331167,0.0998027622699737,0.264373779296875,-1.110992431640625,-0.4502410888671875,-17.027402877807617,-9.59988021850586,19.49315071105957,24.78758416975575,120.99662204464286,92.8339934013784,4.920380803761455,0.28134978719474163,-0.14545322186964815,1.1860018439867557,1677898505.806,1.013509334528787,4403,1.1860018439867557,2
1677898505724,-0.1504904329776764,0.0259455796331167,0.0998027622699737,0.264373779296875,-1.110992431640625,-0.4502410888671875,-17.255229949951172,-9.913951873779297,21.564645767211918,24.78758416975575,120.99662204464286,92.8339934013784,4.920380803761455,0.28134978719474163,-0.14545322186964815,1.1860018439867557,1677898505.724,1.013509334528787,4402,1.1860018439867557,2
1677898505521,0.0014652712270617,-0.366821140050888,0.2814908027648926,0.119537353515625,-0.817779541015625,-0.2708282470703125,-16.35733413696289,-12.410965919494627,22.40715980529785,24.78758416975575,120.99662204464286,92.8339934013784,4.920380803761455,0.13181531832156212,-0.048569443674060936,0.8582926231754539,1677898505.521,1.013509334528787,4395,0.8582926231754539,2
1677898505505,0.1625473648309707,-0.3156735301017761,0.1461713165044784,0.119537353515625,-0.817779541015625,-0.2708282470703125,-16.35733413696289,-12.410965919494627,22.40715980529785,24.78758416975575,120.99662204464286,92.8339934013784,4.920380803761455,0.13181531832156212,-0.048569443674060936,0.8582926231754539,1677898505.505,1.013509334528787,4394,0.8582926231754539,2
1677898505416,0.1625473648309707,-0.3156735301017761,0.1461713165044784,0.119537353515625,-0.817779541015625,-0.2708282470703125,-16.314414978027344,-13.038259506225586,21.91493797302246,24.78758416975575,120.99662204464286,92.8339934013784,4.920380803761455,0.13181531832156212,-0.048569443674060936,0.8582926231754539,1677898505.416,1.013509334528787,4393,0.8582926231754539,2
1677898500581,-0.2597005367279053,-0.0144332675263285,-0.028800755739212,-0.02874755859375,-1.090728759765625,-0.22174072265625,-12.887191772460938,-15.247307777404783,22.656492233276367,24.787630959030498,120.9963191922922,92.682371487841,4.53128813133825,-0.012871309222653083,0.0698905663823215,1.1111409612280203,1677898500.581,0.9897052989152569,4243,1.1111409612280203,2
1677898500473,0.0293592195957899,0.4172512888908386,-0.187444195151329,-0.1092376708984375,-0.782989501953125,-0.30987548828125,-13.7999267578125,-15.764930725097656,22.1256160736084,24.787630959030498,120.9963191922922,92.682371487841,4.53128813133825,-0.09727106064638652,-0.09532797818814315,0.8381403011936303,1677898500.473,0.9897052989152569,4239,0.8381403011936303,2
1677898500586,-0.2396416217088699,0.0027779433876276,-0.0355526693165302,-0.02874755859375,-1.090728759765625,-0.22174072265625,-12.887191772460938,-15.247307777404783,22.656492233276367,24.787630959030498,120.9963191922922,92.682371487841,4.53128813133825,-0.012871309222653083,0.0698905663823215,1.1111409612280203,1677898500.586,0.9897052989152569,4244,1.1111409612280203,2
1677898448217,-0.0869873613119125,0.1043309345841407,-0.0042781019583344,-0.00714111328125,-1.1022491455078125,-0.1521148681640625,28.789936065673828,-17.03474235534668,34.46683120727539,24.789334074636997,120.99530011976996,87.51788378227502,4.529242263987206,0.008632835158116173,0.1401145744083834,1.1038281059946151,1677898448.217,0.9966861408334821,2632,1.1038281059946151,2
1677898521325,-0.0471115857362747,-0.1664307862520218,0.0796626061201095,0.041717529296875,-1.1217193603515625,-0.163482666015625,-10.599950790405272,-14.357190132141112,6.3295440673828125,24.78742075568642,120.99759950236844,93.16507717967032,6.496274074765693,0.057797404978865256,0.13420813141821997,1.1248861698699426,1677898521.325,1.013509334528787,4882,1.1248861698699426,2
1677898521319,-0.0471115857362747,-0.1664307862520218,0.0796626061201095,0.090972900390625,-1.0769195556640625,-0.2551116943359375,-10.599950790405272,-14.357190132141112,6.3295440673828125,24.78742075568642,120.99759950236844,93.16507717967032,6.496274074765693,0.1067705602381478,0.03407513440810617,1.1047862722018311,1677898521.319,1.013509334528787,4881,1.1047862722018311,2
1677898521212,-0.0471115857362747,-0.1664307862520218,0.0796626061201095,0.090972900390625,-1.0769195556640625,-0.2551116943359375,-11.090530395507812,-13.593816757202148,6.334217071533203,24.78742075568642,120.99759950236844,93.16507717967032,6.496274074765693,0.1067705602381478,0.03407513440810617,1.1047862722018311,1677898521.212,1.013509334528787,4880,1.1047862722018311,2
1677898521206,-0.0471115857362747,-0.1664307862520218,0.0796626061201095,-0.0357818603515625,-1.1095123291015625,-0.1966400146484375,-11.090530395507812,-13.593816757202148,6.334217071533203,24.78742075568642,120.99759950236844,93.16507717967032,6.496274074765693,-0.01973912847051316,0.09901609894002986,1.1228407831377756,1677898521.206,1.013509334528787,4879,1.1228407831377756,2
1677898521197,-0.1679653078317642,-0.1125180199742317,0.0084440847858786,-0.0357818603515625,-1.1095123291015625,-0.1966400146484375,-11.090530395507812,-13.593816757202148,6.334217071533203,24.78742075568642,120.99759950236844,93.16507717967032,6.496274074765693,-0.01973912847051316,0.09901609894002986,1.1228407831377756,1677898521.197,1.013509334528787,4878,1.1228407831377756,2
1677898521172,-0.1679653078317642,-0.1125180199742317,0.0084440847858786,-0.0357818603515625,-1.1095123291015625,-0.1966400146484375,-11.431734085083008,-12.58040714263916,6.343296051025391,24.78742075568642,120.99759950236844,93.16507717967032,6.496274074765693,-0.01973912847051316,0.09901609894002986,1.1228407831377756,1677898521.172,1.013509334528787,4877,1.1228407831377756,2
1677898521120,-0.1679653078317642,-0.1125180199742317,0.0084440847858786,-0.0357818603515625,-1.1095123291015625,-0.1966400146484375,-11.431734085083008,-12.58040714263916,6.343296051025391,24.787422237624828,120.9975555764862,92.99827312119304,6.596341530589035,-0.01973912847051316,0.09901609894002986,1.1228407831377756,1677898521.12,1.013509334528787,4876,1.1228407831377756,2
1677898519606,-0.0628399476408958,0.1585656702518463,-0.1695972830057144,-0.10284423828125,-1.158782958984375,-0.288970947265625,-12.383935928344728,-12.462818145751951,7.802974700927734,24.78742328457477,120.99752454404344,93.02714962884784,6.981613127763045,-0.08577138291478067,0.02269772024563882,1.1954025159386121,1677898519.606,1.013509334528787,4829,1.1954025159386121,2
1677898519602,-0.145081028342247,0.3307768702507019,-0.1320256739854812,-0.10284423828125,-1.158782958984375,-0.288970947265625,-12.383935928344728,-12.462818145751951,7.802974700927734,24.78742328457477,120.99752454404344,93.02714962884784,6.981613127763045,-0.08577138291478067,0.02269772024563882,1.1954025159386121,1677898519.602,1.013509334528787,4828,1.1954025159386121,2
1677898519508,-0.145081028342247,0.3307768702507019,-0.1320256739854812,-0.10284423828125,-1.158782958984375,-0.288970947265625,-12.338699340820312,-12.360454559326172,7.875789642333984,24.78742328457477,120.99752454404344,93.02714962884784,6.981613127763045,-0.08577138291478067,0.02269772024563882,1.1954025159386121,1677898519.508,1.013509334528787,4827,1.1954025159386121,2
1677898519503,0.2496511042118072,0.6099038124084473,-0.3004929721355438,-0.10284423828125,-1.158782958984375,-0.288970947265625,-12.338699340820312,-12.360454559326172,7.875789642333984,24.78742328457477,120.99752454404344,93.02714962884784,6.981613127763045,-0.08577138291478067,0.02269772024563882,1.1954025159386121,1677898519.503,1.013509334528787,4826,1.1954025159386121,2
1677898519198,0.0109051121398806,0.3190312385559082,-0.2542881965637207,0.068389892578125,-0.99267578125,-0.6248931884765625,-13.091304779052734,-12.105990409851074,7.036151885986328,24.78742328457477,120.99752454404344,93.02714962884784,6.981613127763045,0.08440332120400484,-0.34488687827258563,1.1200459819385427,1677898519.198,1.013509334528787,4817,1.1200459819385427,2
1677898519192,-0.0952452942728996,-0.1267523467540741,0.1156269982457161,0.068389892578125,-0.99267578125,-0.6248931884765625,-13.091304779052734,-12.105990409851074,7.036151885986328,24.78742328457477,120.99752454404344,93.02714962884784,6.981613127763045,0.08440332120400484,-0.34488687827258563,1.1200459819385427,1677898519.192,1.013509334528787,4816,1.1200459819385427,2
1677898519169,-0.0952452942728996,-0.1267523467540741,0.1156269982457161,0.068389892578125,-0.99267578125,-0.6248931884765625,-13.769542694091797,-11.822517395019531,6.802028656005859,24.78742328457477,120.99752454404344,93.02714962884784,6.981613127763045,0.08440332120400484,-0.34488687827258563,1.1200459819385427,1677898519.169,1.013509334528787,4815,1.1200459819385427,2
1677898498350,0.2067678272724151,-0.0168061442673206,0.0573298670351505,-0.02838134765625,-0.7953338623046875,-0.15960693359375,-12.807430267333984,-13.093280792236328,18.561687469482425,24.78764582113153,120.99621306560908,92.32396892644464,4.206440645899459,-0.016811743952740953,0.052971992877459906,0.8097821681849595,1677898498.35,0.9897052989152569,4174,0.8097821681849595,2
1677898499275,0.1153146103024482,0.2756174504756927,-0.158136636018753,-0.192779541015625,-0.8005523681640625,-0.079315185546875,-9.410085678100586,-18.8934326171875,20.12350845336914,24.787638525739737,120.99625908436438,92.52445877809078,4.341305183912491,-0.18141987340893928,0.13185327421046072,0.7962665934709834,1677898499.275,0.9897052989152569,4203,0.7962665934709834,2
1677898499280,0.4814537167549133,0.0436545349657535,-0.1649362295866012,-0.192779541015625,-0.8005523681640625,-0.079315185546875,-9.410085678100586,-18.8934326171875,20.12350845336914,24.787638525739737,120.99625908436438,92.52445877809078,4.341305183912491,-0.18141987340893928,0.13185327421046072,0.7962665934709834,1677898499.28,0.9897052989152569,4204,0.7962665934709834,2
1677898499352,0.4814537167549133,0.0436545349657535,-0.1649362295866012,-0.192779541015625,-0.8005523681640625,-0.079315185546875,-8.676307678222656,-16.635013580322266,21.545063018798828,24.787638525739737,120.99625908436438,92.52445877809078,4.341305183912491,-0.18141987340893928,0.13185327421046072,0.7962665934709834,1677898499.352,0.9897052989152569,4205,0.7962665934709834,2
1677898500381,0.0293592195957899,0.4172512888908386,-0.187444195151329,-0.1092376708984375,-0.782989501953125,-0.30987548828125,-14.134979248046877,-16.820693969726562,21.3769474029541,24.787630959030498,120.9963191922922,92.682371487841,4.53128813133825,-0.09727106064638652,-0.09532797818814315,0.8381403011936303,1677898500.381,0.9897052989152569,4238,0.8381403011936303,2
1677898521332,-0.1402271538972854,0.2720901072025299,-0.197194293141365,0.041717529296875,-1.1217193603515625,-0.163482666015625,-10.599950790405272,-14.357190132141112,6.3295440673828125,24.78742075568642,120.99759950236844,93.16507717967032,6.496274074765693,0.057797404978865256,0.13420813141821997,1.1248861698699426,1677898521.332,1.013509334528787,4883,1.1248861698699426,2
1677898518991,0.1191468983888626,0.3298484683036804,-0.1403421908617019,0.166839599609375,-1.056427001953125,-0.3618316650390625,-14.096673965454102,-11.63618278503418,6.812335968017578,24.78742487581513,120.9974773783836,93.02239256724717,7.092474341759185,0.18274382858218036,-0.0742996656657488,1.1117013398730387,1677898518.991,1.013509334528787,4810,1.1117013398730387,2
1677898521401,-0.1402271538972854,0.2720901072025299,-0.197194293141365,0.041717529296875,-1.1217193603515625,-0.163482666015625,-10.640947341918944,-14.499795913696287,6.859821319580078,24.78742075568642,120.99759950236844,93.16507717967032,6.496274074765693,0.057797404978865256,0.13420813141821997,1.1248861698699426,1677898521.401,1.013509334528787,4884,1.1248861698699426,2
1677898521528,0.0229607094079256,-0.198990061879158,0.0724033564329147,0.0374908447265625,-1.091156005859375,-0.2136077880859375,-10.793661117553713,-14.273406982421877,7.637611389160156,24.78742075568642,120.99759950236844,93.16507717967032,6.496274074765693,0.05333596787280983,0.07785424437066737,1.1084896349794189,1677898521.528,1.013509334528787,4889,1.1084896349794189,2
1677898497159,0.1217019334435463,-0.1164088994264602,0.0645731315016746,-0.08734130859375,-0.849273681640625,-0.1823883056640625,-15.082830429077148,-12.356576919555664,16.429052352905273,24.78765157039297,120.9961146262722,92.11461382173002,4.375034112135777,-0.07493674294777908,0.04502017214579129,0.868629640994158,1677898497.159,0.9897052989152569,4137,0.868629640994158,2
1677898497163,0.2142007052898407,0.0669681131839752,-0.0305405985563993,-0.08734130859375,-0.849273681640625,-0.1823883056640625,-15.082830429077148,-12.356576919555664,16.429052352905273,24.78765157039297,120.9961146262722,92.11461382173002,4.375034112135777,-0.07493674294777908,0.04502017214579129,0.868629640994158,1677898497.163,0.9897052989152569,4138,0.868629640994158,2
